time,seconds_elapsed,z,y,x
1661347493658344400,0.154344482421875,0.0035952648613601923,-0.13848426938056946,-0.20919114351272583
1661347493668346600,0.1643466796875,0.006791055668145418,-0.11611373722553253,-0.18788588047027588
1661347493678353200,0.174353271484375,-0.0017310534603893757,-0.0564589723944664,-0.1399490088224411
1661347493688365800,0.18436572265625,-0.012383690103888512,0.008522109128534794,-0.08455529808998108
1661347493698386200,0.19438623046875,-0.030493171885609627,0.026631591841578484,-0.05472791939973831
1661347493708415500,0.20441552734375,-0.030493171885609627,0.014913691207766533,-0.03981423005461693
1661347493718454300,0.214454345703125,-0.015579480677843094,-0.02024000883102417,-0.0366184376180172
1661347493728502800,0.224502685546875,0.014247900806367397,-0.0564589723944664,-0.04727107286453247
1661347493738561300,0.234561279296875,0.0366184376180172,-0.07456845790147781,-0.07177213579416275
1661347493748629200,0.244629150390625,0.03981423005461693,-0.08841688185930252,-0.09840372949838638
1661347493758705700,0.25470556640625,0.04407528415322304,-0.10865689069032669,-0.11864373832941055
1661347493768789500,0.26478955078125,0.03874896466732025,-0.11611373722553253,-0.13355742394924164
1661347493778879200,0.274879150390625,0.017443692311644554,-0.08415582776069641,-0.12183953076601028
1661347493788973300,0.284973388671875,-0.0006657897611148655,0.0021305272821336985,-0.0930774137377739
1661347493799070500,0.295070556640625,-0.014514217153191566,0.08735162019729614,-0.05898897349834442
1661347493809168400,0.30516845703125,-0.043276336044073105,0.16298533976078033,-0.025965800508856773
1661347493819250700,0.315250732421875,-0.03795001655817032,0.22903168201446533,0.04540686309337616
1661347493829307400,0.325307373046875,-0.024101590737700462,0.28016433119773865,0.10293109714984894
1661347493839364000,0.335364013671875,-0.0006657897611148655,0.37390753626823425,0.21478378772735596
1661347493849420500,0.345420654296875,0.00892158318310976,0.4005391299724579,0.27763432264328003
1661347493859477200,0.355477294921875,0.05153212696313858,0.42504018545150757,0.3074617087841034
1661347493869534000,0.365533935546875,0.09627319872379303,0.37284228205680847,0.31385329365730286
1661347493879590400,0.37559033203125,0.1346226930618286,0.3398191034793854,0.29574382305145264
1661347493889647000,0.385647216796875,0.1537974327802658,0.28442537784576416,0.24993747472763062
1661347493899703800,0.395703857421875,0.1442100703716278,0.23648852109909058,0.2265016883611679
1661347493909760300,0.40576025390625,0.1165132075548172,0.15872427821159363,0.18708692491054535
1661347493919817000,0.41581689453125,0.10159952193498611,0.11930952966213226,0.13382373750209808
1661347493929873700,0.425873779296875,0.0834900364279747,0.10972215235233307,0.07097318768501282
1661347493939930000,0.43593017578125,0.05898897349834442,0.12889690697193146,0.035819489508867264
1661347493949986800,0.44598681640625,0.0270310640335083,0.14381058514118195,0.02197106182575226
1661347493960043500,0.45604345703125,0.005725792143493891,0.1459411233663559,0.012383690103888512
1661347493970100000,0.466099853515625,0.0025300011038780212,0.15233269333839417,0.02516685426235199
1661347493980156700,0.47615673828125,-0.003861580742523074,0.1363537460565567,0.04008054360747337
1661347493990213400,0.48621337890625,-0.0017310534603893757,0.10546109825372696,0.04540686309337616
1661347494000269800,0.496269775390625,0.012117373757064342,0.07243792712688446,0.03262370079755783
1661347494010326500,0.506326416015625,0.014247900806367397,0.018109481781721115,0.02090579830110073
1661347494020383000,0.516383056640625,-0.003861580742523074,-0.03728422895073891,0.030493171885609627
1661347494030439700,0.526439697265625,-0.035819489508867264,-0.0798947736620903,0.059255290776491165
1661347494040496400,0.536496337890625,-0.0624510794878006,-0.10546109825372696,0.08801741153001785
1661347494050552800,0.546552734375,-0.09014793485403061,-0.122505322098732,0.09760478138923645
1661347494060609500,0.556609619140625,-0.11251847445964813,-0.15339796245098114,0.08908267319202423
1661347494070666200,0.566666259765625,-0.11358373612165451,-0.16618113219738007,0.07203845679759979
1661347494080722700,0.57672265625,-0.10080057382583618,-0.1459411233663559,0.04966791719198227
1661347494090779400,0.586779296875,-0.07523424178361893,-0.13315795361995697,0.02090579830110073
1661347494100836000,0.596836181640625,-0.047537390142679214,-0.13209268450737,-0.006791055668145418
1661347494110892500,0.606892578125,-0.015579480677843094,-0.13528847694396973,-0.02383527345955372
1661347494120949200,0.61694921875,0.009986846707761288,-0.12037479132413864,-0.01957421936094761
1661347494131006000,0.627005859375,0.025965800508856773,-0.1129179447889328,-0.0035952648613601923
1661347494141062400,0.6370625,0.03129211813211441,-0.12037479132413864,0.02516685426235199
1661347494151119000,0.647119140625,0.01850895583629608,-0.1651158630847931,0.04221107065677643
1661347494161175800,0.65717578125,0.004660528618842363,-0.18109482526779175,0.06138581782579422
1661347494171232300,0.667232177734375,-0.008122635073959827,-0.08309056609869003,0.14341111481189728
1661347494181289000,0.6772890625,-0.06671213358640671,0.04793686419725418,0.24993747472763062
1661347494191345700,0.687345703125,-0.08162582665681839,0.13954953849315643,0.3127880394458771
1661347494201402400,0.69740234375,-0.039015281945466995,0.21837905049324036,0.3628554344177246
1661347494211459000,0.707458984375,-0.0070573715493083,0.25672852993011475,0.33728909492492676
1661347494221515800,0.717515869140625,0.11012163013219833,0.245010644197464,0.32770171761512756
1661347494231572500,0.727572509765625,0.23262694478034973,0.22477063536643982,0.37137752771377563
1661347494241629000,0.73762890625,0.20706062018871307,0.30466538667678833,0.39374807476997375
1661347494251685600,0.747685546875,0.05153212696313858,0.40586546063423157,0.42144492268562317
1661347494261742300,0.757742431640625,-0.04008054360747337,0.5560676455497742,0.5183839201927185
1661347494271799000,0.767799072265625,-0.0624510794878006,0.7478150725364685,0.5940176248550415
1661347494281855700,0.777855712890625,-0.03262370079755783,0.9076046347618103,0.6643250584602356
1661347494291912400,0.787912353515625,0.04407528415322304,1.0460889339447021,0.7655251026153564
1661347494301969200,0.79796923828125,0.11438268423080444,1.151550054550171,0.843289315700531
1661347494312025600,0.808025634765625,0.17510271072387695,1.2048131227493286,0.8986830115318298
1661347494322082300,0.818082275390625,0.16445007920265198,1.294295310974121,0.8912261724472046
1661347494332139000,0.828138916015625,0.07177213579416275,1.3752553462982178,0.8113313913345337
1661347494342195700,0.83819580078125,-0.0070573715493083,1.3507542610168457,0.6707166433334351
1661347494352252400,0.84825244140625,-0.0858868807554245,1.1813774108886719,0.4384891390800476
1661347494362309000,0.85830908203125,-0.11251847445964813,0.9353014826774597,0.19773955643177032
1661347494372365800,0.86836572265625,-0.06351634114980698,0.6892255544662476,0.0070573715493083
1661347494382422300,0.87842236328125,0.0025300011038780212,0.4953475892543793,-0.12183953076601028
1661347494392479000,0.88847900390625,0.08562056720256805,0.3813643753528595,-0.15486270189285278
1661347494402535700,0.89853564453125,0.2102564126253128,0.3249054253101349,-0.13249216973781586
1661347494412592400,0.90859228515625,0.2390185296535492,0.22903168201446533,-0.1165132075548172
1661347494422649000,0.918649169921875,0.1452753245830536,0.04048001766204834,-0.13781848549842834
1661347494432705800,0.928705810546875,0.07603318989276886,-0.061785291880369186,-0.1452753245830536
1661347494442762200,0.93876220703125,0.04833633825182915,-0.11717899888753891,-0.12929637730121613
1661347494452819000,0.94881884765625,0.03874896466732025,-0.16298533976078033,-0.07603318989276886
1661347494462875600,0.958875732421875,0.03235738351941109,-0.18429060280323029,-0.007856319658458233
1661347494472932400,0.968932373046875,0.028096329420804977,-0.15872427821159363,0.05819002538919449
1661347494482989000,0.978989013671875,0.025965800508856773,-0.10972215235233307,0.10080057382583618
1661347494493045800,0.989045654296875,0.03768370300531387,-0.07882951200008392,0.1327584832906723
1661347494503102500,0.9991025390625,0.05153212696313858,-0.09800425171852112,0.14341111481189728
1661347494513159000,1.009158935546875,0.06325002759695053,-0.1406148076057434,0.1327584832906723
1661347494523215600,1.019215576171875,0.0930774137377739,-0.14487585425376892,0.13062795996665955
1661347494533272300,1.029272216796875,0.10905636847019196,-0.1406148076057434,0.12743216753005981
1661347494543329000,1.0393291015625,0.11225215345621109,-0.12996216118335724,0.10399636626243591
1661347494553385700,1.0493857421875,0.11544794589281082,-0.09587372839450836,0.0762995108962059
1661347494563442400,1.0594423828125,0.11544794589281082,-0.06498108059167862,0.0624510794878006
1661347494573499100,1.0694990234375,0.10053425282239914,-0.05219791829586029,0.03795001655817032
1661347494583555600,1.0795556640625,0.08668582886457443,-0.012783164158463478,0.005992108024656773
1661347494593612300,1.0896123046875,0.07603318989276886,0.03195790946483612,-0.0153131652623415
1661347494603669000,1.0996689453125,0.06857634335756302,0.09480846673250198,0.002796316985040903
1661347494613725700,1.1097255859375,0.05259739235043526,0.14913691580295563,0.056059498339891434
1661347494623782400,1.119782470703125,0.03448791056871414,0.19494324922561646,0.10825742036104202
1661347494633839000,1.129839111328125,0.02277000993490219,0.21305273473262787,0.14554163813591003
1661347494643895800,1.139895751953125,0.0035952648613601923,0.20879167318344116,0.1561942845582962
1661347494653952300,1.1499521484375,-0.003861580742523074,0.16192007064819336,0.14128059148788452
1661347494664009000,1.160009033203125,-0.012383690103888512,0.08735162019729614,0.1093226820230484
1661347494674065700,1.170065673828125,-0.026232117787003517,-0.010652636177837849,0.023036325350403786
1661347494684122400,1.180122314453125,-0.003861580742523074,-0.26525065302848816,-0.11225215345621109
1661347494694179000,1.190178955078125,0.0270310640335083,-0.31318750977516174,-0.2336922138929367
1661347494704235800,1.20023583984375,0.033422645181417465,-0.35579806566238403,-0.28375959396362305
1661347494714292500,1.21029248046875,-0.008122635073959827,-0.29827383160591125,-0.2667153775691986
1661347494724349000,1.220348876953125,-0.06564687192440033,-0.1736379712820053,-0.22090904414653778
1661347494734405600,1.230405517578125,-0.11145320534706116,-0.12144005298614502,-0.17084164917469025
1661347494744462300,1.24046240234375,-0.12956269085407257,-0.08522108942270279,-0.12397005409002304
1661347494754519000,1.25051904296875,-0.1284974217414856,-0.06072002649307251,-0.07070687413215637
1661347494764575700,1.26057568359375,-0.11997532099485397,-0.07350318878889084,-0.03555317223072052
1661347494774632400,1.270632568359375,-0.0954742506146431,-0.08202529698610306,-0.02277000993490219
1661347494784689200,1.280689208984375,-0.0762995108962059,-0.10652636736631393,-0.03235738351941109
1661347494794745600,1.29074560546875,-0.06138581782579422,-0.2162485122680664,-0.07177213579416275
1661347494804802300,1.30080224609375,-0.03368896245956421,-0.2972085475921631,-0.11970899999141693
1661347494814859000,1.31085888671875,-0.012383690103888512,-0.301469624042511,-0.14314480125904083
1661347494824915700,1.320915771484375,-0.008122635073959827,-0.25566327571868896,-0.1356879621744156
1661347494834972400,1.330972412109375,-0.009187898598611355,-0.19068218767642975,-0.10479531437158585
1661347494845029000,1.341029052734375,-0.015579480677843094,-0.11504847556352615,-0.06857634335756302
1661347494855085800,1.3510859375,-0.02197106182575226,-0.045806337147951126,-0.03555317223072052
1661347494865142500,1.361142578125,-0.02516685426235199,-0.03621896356344223,-0.01957421936094761
1661347494875199200,1.37119921875,-0.01771000772714615,-0.054328445345163345,-0.021704746410250664
1661347494885256000,1.381255859375,-0.013448953628540039,-0.0564589723944664,-0.033422645181417465
1661347494895312600,1.391312744140625,-0.008122635073959827,-0.03621896356344223,-0.04407528415322304
1661347494905369300,1.401369384765625,-0.0006657897611148655,-0.017044218257069588,-0.05153212696313858
1661347494915426000,1.411426025390625,0.005725792143493891,0.0031957910396158695,-0.05898897349834442
1661347494925483000,1.42148291015625,0.01318263728171587,-0.005326318088918924,-0.07070687413215637
1661347494935539700,1.431539794921875,0.0270310640335083,-0.03728422895073891,-0.06751108169555664
1661347494945596400,1.441596435546875,0.03768370300531387,-0.02769685536623001,-0.03129211813211441
1661347494955653000,1.451653076171875,0.02277000993490219,0.01597895473241806,0.011318426579236984
1661347494965709800,1.461709716796875,-0.003861580742523074,0.042610544711351395,0.04114580899477005
1661347494975766500,1.4717666015625,-0.02516685426235199,0.07350318878889084,0.056059498339891434
1661347494985823200,1.4818232421875,-0.03262370079755783,0.0798947736620903,0.0762995108962059
1661347494995880000,1.4918798828125,-0.031558435410261154,0.09161267429590225,0.10080057382583618
1661347495005936600,1.5019365234375,-0.026232117787003517,0.12463584542274475,0.12104058265686035
1661347495015993300,1.511993408203125,-0.024101590737700462,0.14913691580295563,0.1380847990512848
1661347495026050000,1.522050048828125,-0.018775271251797676,0.16298533976078033,0.14873743057250977
1661347495036106800,1.532106689453125,-0.005992108024656773,0.1502021700143814,0.17430377006530762
1661347495046163500,1.54216357421875,0.0153131652623415,0.11504847556352615,0.212653249502182
1661347495056220200,1.55222021484375,0.030226856470108032,0.13209268450737,0.2552638053894043
1661347495066276900,1.56227685546875,0.03768370300531387,0.17150744795799255,0.3021354079246521
1661347495076333600,1.57233349609375,0.03874896466732025,0.26951169967651367,0.34155014157295227
1661347495086390300,1.582390380859375,0.03235738351941109,0.3536675274372101,0.3532680571079254
1661347495096447200,1.592447265625,0.03129211813211441,0.3579285740852356,0.32450592517852783
1661347495106504000,1.60250390625,0.040879491716623306,0.2833601236343384,0.2541985511779785
1661347495116560600,1.612560546875,0.049401599913835526,0.19387798011302948,0.15512901544570923
1661347495126617300,1.622617431640625,0.053662657737731934,0.13422322273254395,0.07416898012161255
1661347495136674000,1.632674072265625,0.05153212696313858,0.09587372839450836,0.01771000772714615
1661347495146730800,1.642730712890625,0.03874896466732025,0.08735162019729614,-0.009986846707761288
1661347495156787200,1.652787109375,0.020639482885599136,0.058589499443769455,-0.024900536984205246
1661347495166844000,1.662843994140625,0.009986846707761288,0,-0.05153212696313858
1661347495176900600,1.672900634765625,0.004660528618842363,-0.05326318368315697,-0.09733846783638
1661347495186957300,1.682957275390625,0.006791055668145418,-0.09480846673250198,-0.12929637730121613
1661347495197014000,1.693013916015625,0.016378428786993027,-0.10226531326770782,-0.12929637730121613
1661347495207070700,1.70307080078125,0.014247900806367397,-0.054328445345163345,-0.07816372066736221
1661347495217127400,1.71312744140625,0.0025300011038780212,0.012783164158463478,0.027297381311655045
1661347495227183900,1.723183837890625,-0.02516685426235199,0.06498108059167862,0.13382373750209808
1661347495237240600,1.733240478515625,-0.035819489508867264,0.058589499443769455,0.1988048255443573
1661347495247297300,1.74329736328125,-0.03262370079755783,-0.04474107176065445,0.19560903310775757
1661347495257354000,1.75335400390625,-0.030493171885609627,-0.16724638640880585,0.11784479022026062
1661347495267410700,1.76341064453125,-0.04008054360747337,-0.24714116752147675,0.010253162123262882
1661347495277467400,1.77346728515625,-0.06351634114980698,-0.31744855642318726,-0.09627319872379303
1661347495287524000,1.783524169921875,-0.08162582665681839,-0.3632549047470093,-0.18469008803367615
1661347495297580500,1.79358056640625,-0.0997353047132492,-0.36858120560646057,-0.24541011452674866
1661347495307638300,1.80363818359375,-0.12104058265686035,-0.3302317261695862,-0.2613890767097473
1661347495317694200,1.813694091796875,-0.1327584832906723,-0.253532737493515,-0.22197431325912476
1661347495327750400,1.82375048828125,-0.12636689841747284,-0.15872427821159363,-0.1261005848646164
1661347495337806600,1.833806640625,-0.11251847445964813,-0.08735162019729614,-0.02277000993490219
1661347495347862800,1.84386279296875,-0.10506162792444229,-0.06072002649307251,0.05392897129058838
1661347495357919000,1.8539189453125,-0.08482161909341812,-0.08202529698610306,0.10719215124845505
1661347495367975400,1.863975341796875,-0.052863709628582,-0.11078742146492004,0.1380847990512848
1661347495378031600,1.874031494140625,-0.02197106182575226,-0.12144005298614502,0.13701952993869781
1661347495388088300,1.88408837890625,-0.003861580742523074,-0.1267663687467575,0.11358373612165451
1661347495398144800,1.894144775390625,0.00892158318310976,-0.12037479132413864,0.09121319651603699
1661347495408201500,1.904201416015625,0.014247900806367397,-0.12144005298614502,0.07203845679759979
1661347495418258400,1.914258544921875,0.006791055668145418,-0.12783163785934448,0.051798444241285324
1661347495428315400,1.9243154296875,0.0035952648613601923,-0.13741901516914368,0.035819489508867264
1661347495438372400,1.934372314453125,-0.0017310534603893757,-0.15872427821159363,0.024101590737700462
1661347495448429300,1.94442919921875,-0.013448953628540039,-0.17150744795799255,0.009187898598611355
1661347495458486500,1.954486572265625,-0.031558435410261154,-0.17044217884540558,-0.014247900806367397
1661347495468543500,1.96454345703125,-0.04221107065677643,-0.1736379712820053,-0.0366184376180172
1661347495478600700,1.9746005859375,-0.04008054360747337,-0.15872427821159363,-0.05472791939973831
1661347495488657700,1.98465771484375,-0.03795001655817032,-0.12144005298614502,-0.04833633825182915
1661347495498714600,1.994714599609375,-0.04114580899477005,-0.07350318878889084,-0.021704746410250664
1661347495508771300,2.004771240234375,-0.043276336044073105,-0.042610544711351395,0.01771000772714615
1661347495518828000,2.014828125,-0.04008054360747337,-0.04367581009864807,0.05819002538919449
1661347495528884700,2.024884765625,-0.018775271251797676,-0.0703074038028717,0.09440898895263672
1661347495538941400,2.03494140625,0.009986846707761288,-0.07776424288749695,0.1284974217414856
1661347495548998000,2.044997802734375,0.030226856470108032,-0.06924213469028473,0.15406376123428345
1661347495559054600,2.0550546875,0.03981423005461693,-0.054328445345163345,0.16684691607952118
1661347495573119500,2.069119384765625,0.021704746410250664,-0.0540621280670166,0.13888375461101532
1661347495583167700,2.079167724609375,0.009986846707761288,-0.07669898122549057,0.11265163123607635
1661347495593255700,2.089255615234375,0.012916321866214275,-0.10412952303886414,0.10040109604597092
1661347495603326700,2.09932666015625,0.022370535880327225,-0.11970899999141693,0.10506162792444229
1661347495613383400,2.109383544921875,0.02090579830110073,-0.14634059369564056,0.11118689179420471
1661347495623440000,2.11943994140625,0.002796316985040903,-0.1765674501657486,0.0997353047132492
1661347495633496300,2.129496337890625,-0.02090579830110073,-0.2181127369403839,0.05685844644904137
1661347495643552800,2.139552734375,-0.03968106955289841,-0.23715431988239288,-0.0007989477599039674
1661347495653609500,2.149609375,-0.049401599913835526,-0.22663484513759613,-0.042610544711351395
1661347495663666000,2.159666015625,-0.06311687082052231,-0.21345220506191254,-0.06431528925895691
1661347495673722400,2.169722412109375,-0.07523424178361893,-0.2234390527009964,-0.07803056389093399
1661347495683779000,2.179779052734375,-0.07736477255821228,-0.24780695140361786,-0.07922898232936859
1661347495693836000,2.1898359375,-0.06538055837154388,-0.24647536873817444,-0.061119500547647476
1661347495703892700,2.199892822265625,-0.05712476372718811,-0.22064273059368134,-0.024234747514128685
1661347495713949400,2.209949462890625,-0.05099949613213539,-0.20852535963058472,0.04194475710391998
1661347495724006400,2.22000634765625,-0.052464235574007034,-0.20985694229602814,0.12530162930488586
1661347495734063000,2.23006298828125,-0.08189214020967484,-0.17550218105316162,0.21172115206718445
1661347495744119800,2.240119873046875,-0.12357058376073837,-0.12157320976257324,0.28309381008148193
1661347495754176500,2.250176513671875,-0.15646059811115265,-0.06258423626422882,0.3448790907859802
1661347495764233500,2.2602333984375,-0.15646059811115265,-0.025300011038780212,0.401204913854599
1661347495774290200,2.270290283203125,-0.13954953849315643,-0.0070573715493083,0.4569981098175049
1661347495784347000,2.280346923828125,-0.1213068962097168,-0.007856319658458233,0.5077312588691711
1661347495794403600,2.290403564453125,-0.10253162682056427,-0.034754227846860886,0.5522060394287109
1661347495804460500,2.30046044921875,-0.08868319541215897,-0.08175898343324661,0.5904223918914795
1661347495814517200,2.310517333984375,-0.08016108721494675,-0.15353111922740936,0.60533607006073
1661347495824574000,2.320573974609375,-0.05952160432934761,-0.21345220506191254,0.6033387184143066
1661347495834630700,2.330630615234375,-0.026631591841578484,-0.2347574681043625,0.6032055616378784
1661347495844687400,2.340687255859375,0.006524739786982536,-0.2155827283859253,0.6001428961753845
1661347495854743800,2.350743896484375,0.035286858677864075,-0.19068218767642975,0.5844302773475647
1661347495864800300,2.36080029296875,0.07683213800191879,-0.17430377006530762,0.5488771200180054
1661347495874857000,2.37085693359375,0.09693899005651474,-0.17403744161128998,0.4932170510292053
1661347495884913400,2.380913330078125,0.11691268533468246,-0.19387798011302948,0.40879490971565247
1661347495894969900,2.390969970703125,0.13169321417808533,-0.19667430222034454,0.325571209192276
1661347495905026300,2.4010263671875,0.14913691580295563,-0.2323606312274933,0.2872216999530792
1661347495915083000,2.4110830078125,0.1712411344051361,-0.28615644574165344,0.2986733019351959
1661347495925140000,2.421139892578125,0.17323850095272064,-0.26272064447402954,0.2968090772628784
1661347495935196700,2.43119677734375,0.11305110156536102,-0.2564622163772583,0.2372874766588211
1661347495945253400,2.44125341796875,0.06191844865679741,-0.25739431381225586,0.17856481671333313
1661347495955310000,2.45131005859375,0.008655266836285591,-0.22437115013599396,0.13142690062522888
1661347495965367000,2.461366943359375,0.04127896577119827,-0.14141374826431274,0.1621863842010498
1661347495975423700,2.471423828125,0.10732531547546387,-0.07776424288749695,0.19068218767642975
1661347495985480400,2.48148046875,0.1700427085161209,-0.10865689069032669,0.20173430442810059
1661347495995537200,2.491537109375,0.21598219871520996,-0.15952323377132416,0.20692746341228485
1661347496005594000,2.501593994140625,0.22477063536643982,-0.17337165772914886,0.2545980215072632
1661347496015650800,2.51165087890625,0.2041311413049698,-0.1693769246339798,0.3135869801044464
1661347496025707500,2.52170751953125,0.15845796465873718,-0.1652490198612213,0.35939332842826843
1661347496035764200,2.53176416015625,0.1327584832906723,-0.11571425944566727,0.39241650700569153
1661347496045821200,2.5418212890625,0.09028109163045883,-0.033422645181417465,0.393881231546402
1661347496055878000,2.5518779296875,0.00612526573240757,0.04713791608810425,0.37324175238609314
1661347496065934600,2.5619345703125,-0.06884266436100006,0.13981585204601288,0.3464770019054413
1661347496075991600,2.571991455078125,-0.0822916179895401,0.1909485012292862,0.3134538233280182
1661347496086048000,2.582048095703125,-0.04407528415322304,0.17190691828727722,0.2996053993701935
1661347496096104400,2.5921044921875,0,0.11225215345621109,0.33848753571510315
1661347496106161000,2.602160888671875,0.012916321866214275,0.03621896356344223,0.4030691385269165
1661347496116217300,2.61221728515625,0.01078579481691122,-0.011851058341562748,0.4751075804233551
1661347496126274000,2.622274169921875,0.011717899702489376,-0.0018642114009708166,0.5430181622505188
1661347496136330500,2.63233056640625,0.018775271251797676,0.05712476372718811,0.6025397181510925
1661347496146387000,2.642386962890625,0.04727107286453247,0.14700637757778168,0.655936062335968
1661347496156444000,2.65244384765625,0.07709845900535583,0.2222406268119812,0.6905571818351746
1661347496166500600,2.66250048828125,0.11358373612165451,0.26831328868865967,0.7150582075119019
1661347496176557300,2.672557373046875,0.10879004746675491,0.28083011507987976,0.7275750637054443
1661347496186614000,2.682614013671875,0.0997353047132492,0.25739431381225586,0.7563371658325195
1661347496196671000,2.6926708984375,0.08482161909341812,0.24101589620113373,0.788960874080658
1661347496206727700,2.702727783203125,0.07044056057929993,0.2528669536113739,0.83476722240448
1661347496216784400,2.712784423828125,0.06831002980470657,0.2624543309211731,0.9001477956771851
1661347496226841300,2.72284130859375,0.07643266767263412,0.24248063564300537,0.9606015086174011
1661347496236898000,2.73289794921875,0.08415582776069641,0.24221432209014893,0.9743167757987976
1661347496246954800,2.742954833984375,0.08175898343324661,0.279764860868454,0.9318393468856812
1661347496257011500,2.753011474609375,0.09028109163045883,0.303866446018219,0.8954872488975525
1661347496267068400,2.763068359375,0.1009337306022644,0.31198909878730774,0.8930904269218445
1661347496277125000,2.773125,0.12037479132413864,0.28322696685791016,0.9154609441757202
1661347496287181800,2.783181884765625,0.15246586501598358,0.19481009244918823,0.951280415058136
1661347496297238500,2.793238525390625,0.18602167069911957,0.10000162571668625,0.9900293946266174
1661347496307295500,2.80329541015625,0.19507640600204468,0.01664474420249462,1.0234520435333252
1661347496317352200,2.813352294921875,0.18109482526779175,-0.07962846010923386,1.0496841669082642
1661347496327409000,2.823408935546875,0.1663142889738083,-0.18722008168697357,1.0697909593582153
1661347496337465300,2.83346533203125,0.11717899888753891,-0.24900537729263306,1.0671278238296509
1661347496347521800,2.843521728515625,0.06325002759695053,-0.2510027587413788,1.0563420057296753
1661347496357578200,2.853578125,0.00892158318310976,-0.1861548274755478,1.0426267385482788
1661347496367635000,2.863635009765625,-0.04247738793492317,-0.08988162130117416,1.0458226203918457
1661347496377691400,2.87369140625,-0.09587372839450836,-0.017443692311644554,1.0671278238296509
1661347496387747800,2.883747802734375,-0.13342426717281342,0.023435799404978752,1.0894984006881714
1661347496397804500,2.893804443359375,-0.14194637537002563,0.054994236677885056,1.112534761428833
1661347496407861500,2.903861572265625,-0.11385004967451096,0.06498108059167862,1.1347720623016357
1661347496417918200,2.913918212890625,-0.0600542388856411,0.06391581892967224,1.153946876525879
1661347496427975000,2.923974853515625,-0.006391582079231739,0.0588558167219162,1.1672626733779907
1661347496438031600,2.934031494140625,0.03701791167259216,0.014780532568693161,1.1707247495651245
1661347496448088600,2.944088623046875,0.0739026665687561,-0.0342215932905674,1.1792469024658203
1661347496458145300,2.954145263671875,0.10506162792444229,-0.055526867508888245,1.2033483982086182
1661347496468202000,2.964201904296875,0.12223900109529495,-0.0564589723944664,1.2279826402664185
1661347496478258700,2.9742587890625,0.11518163233995438,-0.05659212917089462,1.228914737701416
1661347496488315600,2.984315673828125,0.0870852991938591,-0.039547912776470184,1.2024163007736206
1661347496498372400,2.994372314453125,0.028495801612734795,0.012117373757064342,1.1504846811294556
1661347496508429000,3.004428955078125,-0.031158961355686188,0.09507478028535843,1.0889657735824585
1661347496518485800,3.01448583984375,-0.06950845569372177,0.16977639496326447,1.0101362466812134
1661347496528542700,3.024542724609375,-0.06857634335756302,0.2162485122680664,0.9243825078010559
1661347496538599400,3.034599365234375,-0.039015281945466995,0.25126907229423523,0.8749809265136719
1661347496548656000,3.04465625,0.011451584286987782,0.25806012749671936,0.8603335618972778
1661347496558712800,3.054712890625,0.017443692311644554,0.13981585204601288,0.8439550995826721
1661347496568769800,3.064769775390625,0.04167843982577324,0.023036325350403786,0.8301066756248474
1661347496578826500,3.074826416015625,0.06578002870082855,-0.10120004415512085,0.8163914084434509
1661347496588883000,3.084883056640625,0.09014793485403061,-0.23821958899497986,0.7869635224342346
1661347496598939400,3.094939453125,0.10652636736631393,-0.33675646781921387,0.7443529963493347
1661347496608995800,3.104995849609375,0.10825742036104202,-0.3442133069038391,0.7033402919769287
1661347496619052500,3.115052490234375,0.09028109163045883,-0.26112276315689087,0.6526071429252625
1661347496629109000,3.12510888671875,0.05193160101771355,-0.15353111922740936,0.5822997093200684
1661347496639165400,3.13516552734375,0.0050600022077560425,-0.06458161026239395,0.4889560043811798
1661347496649222100,3.14522216796875,-0.02583264373242855,-0.02450106292963028,0.3916175365447998
1661347496659278800,3.15527880859375,-0.034754227846860886,-0.003861580742523074,0.3081275224685669
1661347496669335800,3.165335693359375,-0.02197106182575226,0.03129211813211441,0.24900537729263306
1661347496679392500,3.175392578125,-0.01771000772714615,-0.0070573715493083,0.19148114323616028
1661347496689449200,3.18544921875,-0.009986846707761288,-0.09867004305124283,0.1356879621744156
1661347496699506000,3.195505859375,0.01664474420249462,-0.1700427085161209,0.10546109825372696
1661347496709563000,3.20556298828125,0.05326318368315697,-0.22237378358840942,0.09094688296318054
1661347496719619600,3.21561962890625,0.07203845679759979,-0.25206801295280457,0.08908267319202423
1661347496729676300,3.22567626953125,0.07217161357402802,-0.22663484513759613,0.10892320424318314
1661347496739733000,3.23573291015625,0.06777740269899368,-0.15939007699489594,0.1478053331375122
1661347496749790000,3.2457900390625,0.05233107507228851,-0.08522108942270279,0.1861548274755478
1661347496759846700,3.2558466796875,0.022370535880327225,-0.027830012142658234,0.1904158741235733
1661347496769903400,3.2659033203125,-0.0021305272821336985,0.0021305272821336985,0.15805849432945251
1661347496779960000,3.2759599609375,-0.008788425475358963,0.018775271251797676,0.10998847335577011
1661347496790017000,3.28601708984375,-0.010519478470087051,0.042610544711351395,0.05712476372718811
1661347496800073700,3.29607373046875,-0.011052110232412815,0.0600542388856411,0.0002663159102667123
1661347496810130400,3.30613037109375,0.005725792143493891,0.05219791829586029,-0.05352949723601341
1661347496820187100,3.316187255859375,0.03621896356344223,0.03621896356344223,-0.0894821435213089
1661347496830244000,3.326244140625,0.059787921607494354,0.009587372653186321,-0.10799109935760498
1661347496840300800,3.33630078125,0.0762995108962059,-0.011851058341562748,-0.11584742367267609
1661347496850357200,3.346357177734375,0.0894821435213089,-0.014913691207766533,-0.12463584542274475
1661347496860414000,3.3564140625,0.08748477697372437,-0.01504684891551733,-0.13062795996665955
1661347496870470400,3.366470458984375,0.06897582113742828,-0.0070573715493083,-0.11904320865869522
1661347496880526800,3.37652685546875,0.04540686309337616,0.01957421936094761,-0.08415582776069641
1661347496890583300,3.386583251953125,0.023568958044052124,0.05539371073246002,-0.04287686198949814
1661347496900640000,3.396639892578125,0.012383690103888512,0.08415582776069641,-0.0141147430986166
1661347496910696400,3.406696533203125,0.011451584286987782,0.11824426054954529,0.013848427683115005
1661347496920753400,3.41675341796875,0.024900536984205246,0.15006901323795319,0.0366184376180172
1661347496930810000,3.42681005859375,0.045140545815229416,0.16112112998962402,0.039015281945466995
1661347496940866800,3.43686669921875,0.05938844755291939,0.140481635928154,0.029161592945456505
1661347496950923500,3.446923583984375,0.07643266767263412,0.09893636405467987,0.013848427683115005
1661347496960980500,3.45698046875,0.09281109273433685,0.05352949723601341,-0.005992108024656773
1661347496971037200,3.467037109375,0.10559425503015518,0.036485280841588974,-0.02157158963382244
1661347496981094000,3.477093994140625,0.10719215124845505,0.05752423778176308,-0.02263685315847397
1661347496991150600,3.487150634765625,0.09733846783638,0.08548741042613983,-0.020506324246525764
1661347497001207600,3.49720751953125,0.08135951310396194,0.08761793375015259,-0.019973693415522575
1661347497011264300,3.50726416015625,0.06564687192440033,0.06950845569372177,-0.010918952524662018
1661347497021321000,3.517321044921875,0.04860265180468559,0.06524740159511566,0.0006657897611148655
1661347497031377700,3.527377685546875,0.024101590737700462,0.07496792823076248,-0.0006657897611148655
1661347497041434600,3.5374345703125,-0.009187898598611355,0.08562056720256805,-0.008122635073959827
1661347497051491300,3.5474912109375,-0.03795001655817032,0.09041424840688705,-0.018908429890871048
1661347497061548000,3.557548095703125,-0.04966791719198227,0.09121319651603699,-0.03262370079755783
1661347497071605000,3.56760498046875,-0.041545283049345016,0.08562056720256805,-0.044474758207798004
1661347497081661700,3.57766162109375,-0.025965800508856773,0.04540686309337616,-0.04500738903880119
1661347497091718400,3.587718505859375,-0.016911059617996216,-0.01717737689614296,-0.035819489508867264
1661347497101775000,3.597775146484375,-0.007323687430471182,-0.06777740269899368,-0.02024000883102417
1661347497111832000,3.60783203125,-0.0023968431632965803,-0.10199899226427078,-0.008255792781710625
1661347497121888500,3.617888427734375,-0.010253162123262882,-0.09760478138923645,-0.005326318088918924
1661347497131945000,3.627945068359375,-0.029028434306383133,-0.06351634114980698,-0.001464737462811172
1661347497142001700,3.638001708984375,-0.05712476372718811,-0.030493171885609627,-0.001331579522229731
1661347497152058000,3.64805810546875,-0.08508793264627457,0.0023968431632965803,-0.013049479573965073
1661347497162114600,3.658114501953125,-0.10679268091917038,0.03129211813211441,-0.028362644836306572
1661347497172171000,3.6681708984375,-0.12144005298614502,0.048203181475400925,-0.0354200154542923
1661347497182227700,3.678227783203125,-0.13129374384880066,0.06032055243849754,-0.04127896577119827
1661347497192284400,3.688284423828125,-0.12809795141220093,0.06751108169555664,-0.043276336044073105
1661347497202341400,3.69834130859375,-0.11544794589281082,0.05712476372718811,-0.03448791056871414
1661347497212398000,3.708398193359375,-0.09480846673250198,0.03328948840498924,-0.022370535880327225
1661347497222454800,3.718454833984375,-0.06711161136627197,0.002796316985040903,-0.01771000772714615
1661347497232511500,3.728511474609375,-0.0366184376180172,-0.030892645940184593,-0.013582111336290836
1661347497242568400,3.738568359375,-0.013049479573965073,-0.05792371183633804,-0.007723161485046148
1661347497252625200,3.748625244140625,-0.0021305272821336985,-0.07563371956348419,-0.008788425475358963
1661347497262681900,3.758681884765625,0.0017310534603893757,-0.09707214683294296,-0.019441060721874237
1661347497272738600,3.768738525390625,0.006524739786982536,-0.0966726765036583,-0.02450106292963028
1661347497282795500,3.77879541015625,0.006791055668145418,-0.0564589723944664,-0.020639482885599136
1661347497292852200,3.788852294921875,-0.0017310534603893757,-0.001464737462811172,-0.020506324246525764
1661347497302909000,3.798908935546875,-0.008788425475358963,0.04181159660220146,-0.018908429890871048
1661347497312965600,3.808965576171875,-0.011584741994738579,0.056725289672613144,-0.021305272355675697
1661347497323022600,3.819022705078125,-0.006657897960394621,0.05419528856873512,-0.03621896356344223
1661347497333079300,3.829079345703125,0.006524739786982536,0.04793686419725418,-0.05299686640501022
1661347497343136000,3.839135986328125,0.018908429890871048,0.03262370079755783,-0.06564687192440033
1661347497353193000,3.84919287109375,0.02876211889088154,0.012383690103888512,-0.0600542388856411
1661347497363249700,3.859249755859375,0.03914843872189522,-0.005326318088918924,-0.042610544711351395
1661347497373306400,3.869306396484375,0.05233107507228851,-0.016378428786993027,-0.013582111336290836
1661347497383363000,3.879363037109375,0.06032055243849754,-0.027830012142658234,0.01850895583629608
1661347497393420000,3.889419921875,0.059787921607494354,-0.02090579830110073,0.03861580789089203
1661347497403476700,3.899476806640625,0.060453712940216064,-0.0070573715493083,0.04008054360747337
1661347497413533200,3.909533203125,0.06578002870082855,-0.012516847811639309,0.034088436514139175
1661347497423589600,3.919589599609375,0.061119500547647476,-0.021305272355675697,0.02450106292963028
1661347497433646300,3.929646240234375,0.050067391246557236,-0.025965800508856773,0.015180006623268127
1661347497443702800,3.939702880859375,0.03728422895073891,-0.031025802716612816,0.0034621069207787514
1661347497453759200,3.94975927734375,0.02210422046482563,-0.02463422156870365,-0.006657897960394621
1661347497463815700,3.959815673828125,0.013848427683115005,-0.021305272355675697,-0.018109481781721115
1661347497473872400,3.969872314453125,0.011318426579236984,-0.03914843872189522,-0.024767380207777023
1661347497483929300,3.979929443359375,0.013981585390865803,-0.07430213689804077,-0.046871598809957504
1661347497493986000,3.989986083984375,0.018109481781721115,-0.09454214572906494,-0.06950845569372177
1661347497504042800,4.000042724609375,0.013582111336290836,-0.09454214572906494,-0.06471476703882217
1661347497514099500,4.010099365234375,0.01078579481691122,-0.08801741153001785,-0.04540686309337616
1661347497524156400,4.020156494140625,0.005326318088918924,-0.04900212585926056,-0.029028434306383133
1661347497534213000,4.030213134765625,-0.007323687430471182,-0.003861580742523074,-0.019840534776449203
1661347497544269800,4.040269775390625,-0.02197106182575226,0.028362644836306572,-0.017310533672571182
1661347497554326500,4.050326416015625,-0.03821633383631706,0.05352949723601341,-0.004261054564267397
1661347497564383500,4.060383544921875,-0.04900212585926056,0.07523424178361893,0.015180006623268127
1661347497574440200,4.070440185546875,-0.05579318478703499,0.06378266215324402,0.023702116683125496
1661347497584497000,4.080496826171875,-0.052464235574007034,0.020639482885599136,0.008122635073959827
1661347497594553600,4.0905537109375,-0.035819489508867264,-0.0342215932905674,-0.019174745306372643
1661347497604610600,4.100610595703125,-0.021172115579247475,-0.07816372066736221,-0.0366184376180172
1661347497614667300,4.110667236328125,-0.01771000772714615,-0.10839057713747025,-0.03328948840498924
1661347497624724000,4.120723876953125,-0.02263685315847397,-0.1129179447889328,-0.012516847811639309
1661347497634781000,4.130781005859375,-0.0270310640335083,-0.08748477697372437,0.015579480677843094
1661347497644837600,4.140837646484375,-0.03262370079755783,-0.05259739235043526,0.04234423115849495
1661347497654894300,4.150894287109375,-0.04301001876592636,-0.029561065137386322,0.06538055837154388
1661347497664951000,4.160950927734375,-0.04860265180468559,-0.03209106624126434,0.07709845900535583
1661347497675008000,4.171008056640625,-0.05352949723601341,-0.02876211889088154,0.08655267208814621
1661347497685064700,4.181064697265625,-0.058589499443769455,-0.024101590737700462,0.07909582555294037
1661347497695121400,4.191121337890625,-0.05965476483106613,-0.024234747514128685,0.048735812306404114
1661347497705178000,4.20117822265625,-0.05898897349834442,-0.02569948509335518,0.013848427683115005
1661347497715235000,4.211235107421875,-0.05352949723601341,-0.019840534776449203,-0.015712639316916466
1661347497725291500,4.22129150390625,-0.05113265663385391,-0.011717899702489376,-0.04194475710391998
1661347497735348000,4.231347900390625,-0.052863709628582,-0.015712639316916466,-0.06258423626422882
1661347497745404700,4.24140478515625,-0.052464235574007034,-0.02516685426235199,-0.06857634335756302
1661347497755461000,4.251461181640625,-0.049401599913835526,-0.03382211923599243,-0.06205160543322563
1661347497765517600,4.261517578125,-0.049401599913835526,-0.04048001766204834,-0.053662657737731934
1661347497775574000,4.271573974609375,-0.0504668653011322,-0.043276336044073105,-0.056192658841609955
1661347497785630700,4.281630615234375,-0.04993423447012901,-0.048735812306404114,-0.07070687413215637
1661347497795687700,4.291687744140625,-0.05139897018671036,-0.050733182579278946,-0.07709845900535583
1661347497805744400,4.301744384765625,-0.051798444241285324,-0.03209106624126434,-0.06924213469028473
1661347497815801000,4.311801025390625,-0.051798444241285324,-0.018775271251797676,-0.05992107838392258
1661347497825857800,4.32185791015625,-0.053662657737731934,-0.026631591841578484,-0.06325002759695053
1661347497835914800,4.331914794921875,-0.052464235574007034,-0.050733182579278946,-0.08029424399137497
1661347497845971500,4.341971435546875,-0.0456731803715229,-0.07004108279943466,-0.09773793816566467
1661347497856028200,4.352028076171875,-0.03941475600004196,-0.05792371183633804,-0.10306425392627716
1661347497866084900,4.3620849609375,-0.03861580789089203,-0.050067391246557236,-0.09587372839450836
1661347497876141800,4.372141845703125,-0.041545283049345016,-0.058722659945487976,-0.08242477476596832
1661347497886198500,4.382198486328125,-0.0456731803715229,-0.06751108169555664,-0.06990792602300644
1661347497896255200,4.392255126953125,-0.04833633825182915,-0.06431528925895691,-0.05938844755291939
1661347497906312000,4.40231201171875,-0.04607265070080757,-0.05712476372718811,-0.05153212696313858
1661347497916369000,4.412368896484375,-0.04221107065677643,-0.04194475710391998,-0.04301001876592636
1661347497926425600,4.422425537109375,-0.04287686198949814,-0.02463422156870365,-0.040879491716623306
1661347497936482300,4.432482421875,-0.03821633383631706,-0.010253162123262882,-0.048203181475400925
1661347497946539300,4.442539306640625,-0.03129211813211441,-0.01504684891551733,-0.07203845679759979
1661347497956596000,4.452595947265625,-0.03235738351941109,-0.011318426579236984,-0.10466215014457703
1661347497966652700,4.462652587890625,-0.03861580789089203,-0.0043942127376794815,-0.1356879621744156
1661347497976709400,4.47270947265625,-0.03502054139971733,0.005326318088918924,-0.13848426938056946
1661347497986766300,4.482766357421875,-0.0318247526884079,0.005592633970081806,-0.11185268312692642
1661347497996823000,4.492822998046875,-0.03555317223072052,-0.0011984215816482902,-0.07430213689804077
1661347498006879700,4.502879638671875,-0.04034686088562012,-0.011851058341562748,-0.04434159770607948
1661347498016936400,4.5129365234375,-0.03968106955289841,-0.005326318088918924,-0.03262370079755783
1661347498026993400,4.522993408203125,-0.03448791056871414,0.009454214945435524,-0.035819489508867264
1661347498037050000,4.533050048828125,-0.03009369783103466,0.014514217153191566,-0.04900212585926056
1661347498047106800,4.54310693359375,-0.03235738351941109,0.02876211889088154,-0.06950845569372177
1661347498057163500,4.55316357421875,-0.032224226742982864,0.043276336044073105,-0.09627319872379303
1661347498067220200,4.56322021484375,-0.02383527345955372,0.03874896466732025,-0.11478215456008911
1661347498077276700,4.573276611328125,-0.017044218257069588,0.01597895473241806,-0.11371689289808273
1661347498087333400,4.58333349609375,-0.01664474420249462,-0.005992108024656773,-0.09400951862335205
1661347498097389800,4.593389892578125,-0.017310533672571182,-0.02143843099474907,-0.04833633825182915
1661347498107446300,4.6034462890625,-0.014247900806367397,-0.0330231711268425,0.012783164158463478
1661347498117502700,4.613502685546875,-0.01318263728171587,-0.04194475710391998,0.06737792491912842
1661347498127559400,4.623559326171875,-0.008788425475358963,-0.040213704109191895,0.10626004636287689
1661347498137616400,4.633616455078125,-0.0035952648613601923,-0.043276336044073105,0.12703268229961395
1661347498147673000,4.643673095703125,-0.0017310534603893757,-0.049401599913835526,0.118910051882267
1661347498157729800,4.653729736328125,-0.005992108024656773,-0.04833633825182915,0.08375635743141174
1661347498167786500,4.663786376953125,-0.008788425475358963,-0.02996053919196129,0.027963170781731606
1661347498177843500,4.673843505859375,-0.008522109128534794,-0.008655266836285591,-0.033422645181417465
1661347498187900200,4.683900146484375,-0.012117373757064342,0.016378428786993027,-0.08135951310396194
1661347498197956900,4.693956787109375,-0.025433169677853584,0.035819489508867264,-0.10479531437158585
1661347498208013600,4.704013671875,-0.03981423005461693,0.05712476372718811,-0.10159952193498611
1661347498218070500,4.714070556640625,-0.05206476151943207,0.05259739235043526,-0.07350318878889084
1661347498228127200,4.724127197265625,-0.05113265663385391,0.02649843320250511,-0.03555317223072052
1661347498238184000,4.734183837890625,-0.04460791498422623,-0.004660528618842363,-0.007190529722720385
1661347498248240600,4.74424072265625,-0.03755054250359535,-0.044474758207798004,0.007723161485046148
1661347498258297600,4.754297607421875,-0.026897907257080078,-0.07004108279943466,0.009187898598611355
1661347498268354300,4.764354248046875,-0.016378428786993027,-0.06897582113742828,0.0025300011038780212
1661347498278411000,4.774410888671875,-0.008122635073959827,-0.051265813410282135,-0.0017310534603893757
1661347498288467700,4.7844677734375,-0.009454214945435524,-0.034088436514139175,-0.006791055668145418
1661347498298524700,4.794524658203125,-0.01664474420249462,0.0017310534603893757,-0.010386320762336254
1661347498308581400,4.804581298828125,-0.017443692311644554,0.004527370445430279,-0.012783164158463478
1661347498318638000,4.81463818359375,-0.0019973693415522575,-0.03315633162856102,-0.024101590737700462
1661347498328695000,4.824695068359375,0.007190529722720385,-0.0913463607430458,-0.05299686640501022
1661347498338751700,4.834751708984375,0.01664474420249462,-0.16085481643676758,-0.0918789878487587
1661347498348808400,4.844808349609375,0.03941475600004196,-0.25739431381225586,-0.11757847666740417
1661347498358865200,4.854865234375,0.0715058222413063,-0.28509119153022766,-0.09440898895263672
1661347498368922000,4.864922119140625,0.07603318989276886,-0.19001640379428864,-0.020506324246525764
1661347498378978800,4.874978759765625,0.05752423778176308,-0.034754227846860886,0.060453712940216064
1661347498389035500,4.885035400390625,0.03262370079755783,0.09733846783638,0.11185268312692642
1661347498399092200,4.89509228515625,0.01504684891551733,0.1777658760547638,0.1346226930618286
1661347498409149200,4.905149169921875,-0.003861580742523074,0.18176060914993286,0.1284974217414856
1661347498419206000,4.915205810546875,-0.010652636177837849,0.07696529477834702,0.09507478028535843
1661347498429262600,4.9252626953125,0.009321057237684727,-0.05712476372718811,0.03795001655817032
1661347498439319300,4.9353193359375,0.031558435410261154,-0.11677952855825424,-0.01784316636621952
1661347498449376300,4.945376220703125,0.02876211889088154,-0.09773793816566467,-0.04793686419725418
1661347498459433000,4.955432861328125,0.009187898598611355,-0.02463422156870365,-0.05219791829586029
1661347498469489400,4.965489501953125,-0.0023968431632965803,0.04966791719198227,-0.04767054691910744
1661347498479546000,4.975546142578125,0.0025300011038780212,0.06285055726766586,-0.024900536984205246
1661347498489602600,4.9856025390625,0.013448953628540039,0.04474107176065445,0.030493171885609627
1661347498499659000,4.995658935546875,-0.001464737462811172,0.007323687430471182,0.10865689069032669
1661347498509715500,5.005715576171875,0.0022636852227151394,-0.1471395343542099,0.1430116444826126
1661347498519772200,5.015772216796875,-0.0017310534603893757,-0.2557964324951172,0.16298533976078033
1661347498529828900,5.025828857421875,0.0018642114009708166,-0.2834932804107666,0.18149429559707642
1661347498539885600,5.035885498046875,0.007190529722720385,-0.29893961548805237,0.1525990217924118
1661347498549942500,5.045942626953125,0.038349490612745285,-0.31318750977516174,0.12170637398958206
1661347498559999200,5.055999267578125,0.04593949392437935,-0.2954775094985962,0.09507478028535843
1661347498570056000,5.066055908203125,0.02383527345955372,-0.22237378358840942,0.08815056830644608
1661347498580112600,5.076112548828125,-0.005193160381168127,-0.16125428676605225,0.07483477145433426
1661347498590169600,5.086169677734375,-0.03129211813211441,-0.1392832249403,0.04540686309337616
1661347498600226300,5.096226318359375,-0.03968106955289841,-0.10199899226427078,0.03235738351941109
1661347498610283000,5.106282958984375,-0.04713791608810425,-0.10825742036104202,0.029161592945456505
1661347498620339700,5.116339599609375,-0.05965476483106613,-0.047537390142679214,0.03968106955289841
1661347498630396700,5.126396728515625,-0.07763108611106873,0.08082687854766846,0.03874896466732025
1661347498640453400,5.136453369140625,-0.0894821435213089,0.11185268312692642,-0.008255792781710625
1661347498650510000,5.146510009765625,-0.06591318547725677,0.09627319872379303,-0.058589499443769455
1661347498660566800,5.15656689453125,-0.018109481781721115,0.053662657737731934,-0.07243792712688446
1661347498670623700,5.166623779296875,0.016378428786993027,0.009986846707761288,-0.06072002649307251
1661347498680680400,5.176680419921875,0.030892645940184593,-0.015712639316916466,-0.03621896356344223
1661347498690737200,5.186737060546875,0.034754227846860886,-0.0031957910396158695,-0.008522109128534794
1661347498700793900,5.1967939453125,0.029561065137386322,0.028096329420804977,0.014514217153191566
1661347498710850800,5.206850830078125,0.007856319658458233,0.05539371073246002,0.02210422046482563
1661347498720907500,5.216907470703125,-0.0017310534603893757,0.10106688737869263,0.007190529722720385
1661347498730964200,5.226964111328125,-0.03728422895073891,0.09693899005651474,-0.02636527456343174
1661347498741021200,5.237021240234375,-0.03941475600004196,0.11318425834178925,-0.07217161357402802
1661347498751078000,5.247077880859375,-0.034088436514139175,0.11012163013219833,-0.09334372729063034
1661347498761134600,5.257134521484375,-0.025965800508856773,0.10253162682056427,-0.08135951310396194
1661347498771191300,5.26719140625,-0.016245270147919655,0.10399636626243591,-0.05033370852470398
1661347498781248300,5.277248291015625,-0.002796316985040903,0.10319741815328598,-0.008122635073959827
1661347498791305000,5.287304931640625,0.008522109128534794,0.11118689179420471,0.03688475489616394
1661347498801361700,5.297361572265625,0.014247900806367397,0.1291632205247879,0.05792371183633804
1661347498811418400,5.30741845703125,0.019973693415522575,0.13302479684352875,0.052464235574007034
1661347498821475300,5.317475341796875,0.030226856470108032,0.11078742146492004,0.04234423115849495
1661347498831532000,5.327531982421875,0.038349490612745285,0.10293109714984894,0.03941475600004196
1661347498841588700,5.337588623046875,0.03315633162856102,0.12703268229961395,0.029827382415533066
1661347498851645400,5.3476455078125,0.025300011038780212,0.14487585425376892,0.008122635073959827
1661347498861702400,5.357702392578125,0.01850895583629608,0.140481635928154,-0.007856319658458233
1661347498871759000,5.367759033203125,0.008255792781710625,0.12596742808818817,-0.011717899702489376
1661347498881815800,5.37781591796875,-0.0010652636410668492,0.11038794368505478,-0.002796316985040903
1661347498891872500,5.38787255859375,-0.007723161485046148,0.105727419257164,0.008788425475358963
1661347498901929500,5.397929443359375,-0.0010652636410668492,0.10053425282239914,0.012383690103888512
1661347498911986200,5.407986083984375,0.012117373757064342,0.07350318878889084,-0.0003994738799519837
1661347498922043000,5.41804296875,0.021038956940174103,0.024900536984205246,-0.0141147430986166
1661347498932099600,5.428099609375,0.029561065137386322,0.0006657897611148655,-0.0006657897611148655
1661347498942156500,5.438156494140625,0.03195790946483612,0.023036325350403786,0.038349490612745285
1661347498952213200,5.448213134765625,0.0270310640335083,0.05965476483106613,0.0762995108962059
1661347498962270000,5.45827001953125,0.025965800508856773,0.0727042406797409,0.1069258376955986
1661347498972327000,5.468326904296875,0.020639482885599136,0.06777740269899368,0.12809795141220093
1661347498982383600,5.478383544921875,0.016378428786993027,0.05992107838392258,0.13382373750209808
1661347498992440300,5.4884404296875,0.01717737689614296,0.05139897018671036,0.12064110487699509
1661347499002497000,5.4984970703125,0.01717737689614296,0.056725289672613144,0.08921582996845245
1661347499012554000,5.508553955078125,0.015579480677843094,0.06777740269899368,0.051798444241285324
1661347499022610700,5.518610595703125,0.0050600022077560425,0.07523424178361893,0.02197106182575226
1661347499032667400,5.52866748046875,-0.006791055668145418,0.0822916179895401,0.005725792143493891
1661347499042723800,5.538723876953125,-0.018109481781721115,0.09840372949838638,0.0006657897611148655
1661347499052780500,5.548780517578125,-0.017976323142647743,0.122505322098732,0.010253162123262882
1661347499062837000,5.5588369140625,-0.006791055668145418,0.12876373529434204,0.02383527345955372
1661347499072893400,5.5688935546875,0.009321057237684727,0.0954742506146431,0.030626330524683
1661347499082950000,5.578949951171875,0.02996053919196129,0.04673844203352928,0.03515370190143585
1661347499093006600,5.589006591796875,0.04833633825182915,0.026631591841578484,0.04181159660220146
1661347499103063600,5.5990634765625,0.0624510794878006,0.032224226742982864,0.040879491716623306
1661347499113120300,5.609120361328125,0.07430213689804077,0.05153212696313858,0.03621896356344223
1661347499123177000,5.619177001953125,0.07536740601062775,0.08309056609869003,0.03808317333459854
1661347499133233700,5.629233642578125,0.07350318878889084,0.12769848108291626,0.03555317223072052
1661347499143290600,5.63929052734375,0.07856319099664688,0.17403744161128998,0.03262370079755783
1661347499153347300,5.649347412109375,0.0906805694103241,0.20706062018871307,0.03688475489616394
1661347499163404000,5.659404052734375,0.09520793706178665,0.21451745927333832,0.04194475710391998
1661347499173460700,5.669460693359375,0.09653951972723007,0.19307903945446014,0.04194475710391998
1661347499183517700,5.679517578125,0.10519478470087051,0.15592797100543976,0.04407528415322304
1661347499193574400,5.689574462890625,0.12037479132413864,0.12570111453533173,0.03981423005461693
1661347499203631000,5.699631103515625,0.1363537460565567,0.10785794258117676,0.022370535880327225
1661347499213688000,5.70968798828125,0.14980269968509674,0.09094688296318054,0.012383690103888512
1661347499223744800,5.719744873046875,0.1597895473241806,0.08082687854766846,0.011318426579236984
1661347499233801500,5.729801513671875,0.16418376564979553,0.06205160543322563,0.0034621069207787514
1661347499243858200,5.739858154296875,0.15725953876972198,0.05819002538919449,-0.016777902841567993
1661347499253915100,5.7499150390625,0.14674006402492523,0.08309056609869003,-0.02197106182575226
1661347499263971800,5.759971923828125,0.13781848549842834,0.12077426165342331,-0.003994738683104515
1661347499274028500,5.770028564453125,0.13528847694396973,0.16551533341407776,0.03555317223072052
1661347499284085200,5.780085205078125,0.1418132185935974,0.19481009244918823,0.08415582776069641
1661347499294142200,5.79014208984375,0.15419691801071167,0.20692746341228485,0.1303616315126419
1661347499304199000,5.800198974609375,0.15939007699489594,0.20799273252487183,0.16964323818683624
1661347499314255600,5.810255615234375,0.16258586943149567,0.20879167318344116,0.18815219402313232
1661347499324312300,5.820312255859375,0.16551533341407776,0.21185430884361267,0.18149429559707642
1661347499334369300,5.830369384765625,0.16205322742462158,0.20586219429969788,0.15273217856884003
1661347499344426000,5.840426025390625,0.14927007257938385,0.1813611388206482,0.09760478138923645
1661347499354482700,5.850482666015625,0.13888375461101532,0.1452753245830536,0.0270310640335083
1661347499364539400,5.860539306640625,0.13781848549842834,0.11677952855825424,-0.03235738351941109
1661347499374596400,5.870596435546875,0.13608743250370026,0.11438268423080444,-0.0774979293346405
1661347499384653000,5.880653076171875,0.12570111453533173,0.13528847694396973,-0.1093226820230484
1661347499394709800,5.890709716796875,0.11478215456008911,0.16125428676605225,-0.12383689731359482
1661347499404766500,5.900766357421875,0.10772478580474854,0.16924376785755157,-0.12809795141220093
1661347499414823400,5.910823486328125,0.1002679392695427,0.16018901765346527,-0.1267663687467575
1661347499424880000,5.920880126953125,0.09121319651603699,0.14793848991394043,-0.12863057851791382
1661347499434936800,5.930936767578125,0.07669898122549057,0.14687322080135345,-0.14247901737689972
1661347499444993800,5.940993896484375,0.06777740269899368,0.1519332230091095,-0.1693769246339798
1661347499455050500,5.951050537109375,0.06285055726766586,0.15126743912696838,-0.19068218767642975
1661347499465107200,5.961107177734375,0.059787921607494354,0.14407691359519958,-0.1970737725496292
1661347499475164000,5.971163818359375,0.04913528636097908,0.12037479132413864,-0.19600850343704224
1661347499485220900,5.981220947265625,0.03368896245956421,0.09147951751947403,-0.1898832470178604
1661347499495277600,5.991277587890625,0.015579480677843094,0.07283740490674973,-0.17443692684173584
1661347499505334300,6.001334228515625,-0.005592633970081806,0.09054741263389587,-0.13701952993869781
1661347499515391000,6.011390869140625,-0.021305272355675697,0.14101427793502808,-0.0870852991938591
1661347499525448000,6.021447998046875,-0.03262370079755783,0.1981390416622162,-0.05792371183633804
1661347499535504600,6.031504638671875,-0.03874896466732025,0.23222747445106506,-0.054328445345163345
1661347499545561300,6.041561279296875,-0.041412122547626495,0.24780695140361786,-0.0636495053768158
1661347499555618000,6.0516181640625,-0.031158961355686188,0.2612559199333191,-0.06751108169555664
1661347499565675000,6.061675048828125,-0.013715269044041634,0.2659164369106293,-0.045140545815229416
1661347499575731700,6.071731689453125,-0.0003994738799519837,0.2569948434829712,-0.003994738683104515
1661347499585788400,6.081788330078125,0.0035952648613601923,0.25246748328208923,0.044474758207798004
1661347499595845000,6.09184521484375,-0.0025300011038780212,0.24354590475559235,0.09094688296318054
1661347499605902000,6.101902099609375,-0.005193160381168127,0.24074958264827728,0.12996216118335724
1661347499615958800,6.111958740234375,-0.0070573715493083,0.24913853406906128,0.1537974327802658
1661347499626015500,6.122015380859375,-0.006657897960394621,0.252334326505661,0.1555284857749939
1661347499636072200,6.132072265625,-0.006657897960394621,0.24461115896701813,0.13355742394924164
1661347499646129200,6.142129150390625,-0.004527370445430279,0.22676800191402435,0.08988162130117416
1661347499656185900,6.152185791015625,-0.004926844500005245,0.2047969400882721,0.019840534776449203
1661347499666242600,6.16224267578125,-0.0031957910396158695,0.19494324922561646,-0.05752423778176308
1661347499676299500,6.172299560546875,-0.0023968431632965803,0.2059953510761261,-0.10546109825372696
1661347499686356200,6.182356201171875,-0.0021305272821336985,0.237820103764534,-0.11638005077838898
1661347499696413000,6.192412841796875,-0.0021305272821336985,0.2697780132293701,-0.10013478249311447
1661347499706469600,6.2024697265625,0.0025300011038780212,0.28083011507987976,-0.06631266325712204
1661347499716526600,6.212526611328125,0.006791055668145418,0.2725743353366852,-0.02090579830110073
1661347499726583300,6.222583251953125,0.007856319658458233,0.2577938139438629,0.02383527345955372
1661347499736640000,6.232639892578125,0.009321057237684727,0.22730062901973724,0.05193160101771355
1661347499746696700,6.24269677734375,0.02197106182575226,0.20013640820980072,0.06351634114980698
1661347499756753700,6.252753662109375,0.03728422895073891,0.1772332340478897,0.06817687302827835
1661347499766810400,6.262810302734375,0.043276336044073105,0.16125428676605225,0.060453712940216064
1661347499776867000,6.2728671875,0.043808966875076294,0.14514216780662537,0.02583264373242855
1661347499786923800,6.282923828125,0.04061317816376686,0.12037479132413864,-0.023702116683125496
1661347499796980700,6.292980712890625,0.034754227846860886,0.09653951972723007,-0.07536740601062775
1661347499807037400,6.303037353515625,0.02889527566730976,0.07696529477834702,-0.11824426054954529
1661347499817094100,6.31309423828125,0.026764748618006706,0.07070687413215637,-0.13595427572727203
1661347499827150800,6.32315087890625,0.023435799404978752,0.09147951751947403,-0.12929637730121613
1661347499837207800,6.333207763671875,0.024900536984205246,0.12769848108291626,-0.10293109714984894
1661347499847264500,6.343264404296875,0.035286858677864075,0.1591237634420395,-0.0636495053768158
1661347499857321200,6.3533212890625,0.04660528525710106,0.15832480788230896,-0.015180006623268127
1661347499867378000,6.3633779296875,0.046871598809957504,0.14407691359519958,0.045140545815229416
1661347499877435000,6.373434814453125,0.03795001655817032,0.11997532099485397,0.1033305749297142
1661347499887491600,6.38349169921875,0.031025802716612816,0.08775109052658081,0.13915006816387177
1661347499897548300,6.39354833984375,0.030493171885609627,0.06498108059167862,0.14993585646152496
1661347499907605200,6.403605224609375,0.030626330524683,0.05392897129058838,0.1537974327802658
1661347499917662000,6.413661865234375,0.030892645940184593,0.0318247526884079,0.14993585646152496
1661347499927719000,6.423718994140625,0.026764748618006706,0.013049479573965073,0.13768532872200012
1661347499937775900,6.43377587890625,0.01504684891551733,0.004127896390855312,0.11464899778366089
1661347499947833000,6.4438330078125,0.0017310534603893757,0.016911059617996216,0.10306425392627716
1661347499957890000,6.45389013671875,-0.011584741994738579,0.030892645940184593,0.11331742256879807
1661347499967947000,6.463947021484375,-0.026897907257080078,0.030226856470108032,0.13422322273254395
1661347499978004000,6.47400390625,-0.03328948840498924,0.005193160381168127,0.15725953876972198
1661347499988060700,6.484060791015625,-0.03448791056871414,-0.030226856470108032,0.1771000772714615
1661347499998117400,6.494117431640625,-0.0354200154542923,-0.0600542388856411,0.19600850343704224
1661347500008174000,6.504174072265625,-0.04048001766204834,-0.07603318989276886,0.21092219650745392
1661347500018231000,6.51423095703125,-0.0504668653011322,-0.08735162019729614,0.2102564126253128
1661347500028287700,6.524287841796875,-0.061652131378650665,-0.10266478359699249,0.18602167069911957
1661347500038344400,6.534344482421875,-0.07669898122549057,-0.114116370677948,0.13701952993869781
1661347500048401200,6.544401123046875,-0.09520793706178665,-0.11012163013219833,0.0703074038028717
1661347500058458000,6.5544580078125,-0.11065425723791122,-0.07922898232936859,0.0035952648613601923
1661347500068514800,6.564514892578125,-0.13129374384880066,-0.04860265180468559,-0.06950845569372177
1661347500078571500,6.574571533203125,-0.15219953656196594,-0.035819489508867264,-0.14700637757778168
1661347500088628500,6.58462841796875,-0.17390428483486176,-0.040879491716623306,-0.20266640186309814
1661347500098685200,6.594685302734375,-0.19001640379428864,-0.043276336044073105,-0.21451745927333832
1661347500108742000,6.604741943359375,-0.2024000883102417,-0.034754227846860886,-0.18349166214466095
1661347500118798600,6.614798583984375,-0.20692746341228485,-0.01957421936094761,-0.11851058155298233
1661347500128855600,6.62485546875,-0.1981390416622162,0.005592633970081806,-0.034088436514139175
1661347500138912300,6.634912353515625,-0.1753690242767334,0.02876211889088154,0.04474107176065445
1661347500148969000,6.644968994140625,-0.14154690504074097,0.04607265070080757,0.11105373501777649
1661347500159025700,6.655025634765625,-0.10865689069032669,0.05099949613213539,0.14767217636108398
1661347500169082600,6.66508251953125,-0.08415582776069641,0.031558435410261154,0.15046848356723785
1661347500179139300,6.675139404296875,-0.07376950979232788,-0.0070573715493083,0.12889690697193146
1661347500189196000,6.685196044921875,-0.07310371845960617,-0.028096329420804977,0.10399636626243591
1661347500199252700,6.695252685546875,-0.07177213579416275,-0.01504684891551733,0.09400951862335205
1661347500209309700,6.705309814453125,-0.07456845790147781,0.01850895583629608,0.09867004305124283
1661347500219366400,6.715366455078125,-0.0822916179895401,0.04860265180468559,0.1129179447889328
1661347500229423000,6.725423095703125,-0.08974846452474594,0.052464235574007034,0.12064110487699509
1661347500239479800,6.735479736328125,-0.08934898674488068,0.029028434306383133,0.12223900109529495
1661347500249536800,6.745536865234375,-0.08189214020967484,-0.00013315795513335615,0.12423637509346008
1661347500259593500,6.755593505859375,-0.07563371956348419,-0.01784316636621952,0.12703268229961395
1661347500269650200,6.765650146484375,-0.07496792823076248,-0.01717737689614296,0.12397005409002304
1661347500279707000,6.775706787109375,-0.0786963477730751,-0.015579480677843094,0.11438268423080444
1661347500289763800,6.785763916015625,-0.07816372066736221,-0.020639482885599136,0.09587372839450836
1661347500299820500,6.795820556640625,-0.08442214131355286,-0.019307903945446014,0.06751108169555664
1661347500309877200,6.805877197265625,-0.0882837250828743,-0.005992108024656773,0.045140545815229416
1661347500319934200,6.815934326171875,-0.09121319651603699,0.005193160381168127,0.035952646285295486
1661347500329991000,6.825990966796875,-0.09267793595790863,0.010519478470087051,0.026631591841578484
1661347500340047600,6.836047607421875,-0.09374319761991501,0.023702116683125496,0.011052110232412815
1661347500350104300,6.846104248046875,-0.09041424840688705,0.04287686198949814,-0.008122635073959827
1661347500360161300,6.856161376953125,-0.08189214020967484,0.05685844644904137,-0.03235738351941109
1661347500370218000,6.866218017578125,-0.07350318878889084,0.04780370742082596,-0.06471476703882217
1661347500380274700,6.876274658203125,-0.06418213248252869,0.02649843320250511,-0.0997353047132492
1661347500390331600,6.88633154296875,-0.05792371183633804,0.008388951420783997,-0.12650005519390106
1661347500400388600,6.896388671875,-0.054994236677885056,-0.0006657897611148655,-0.1346226930618286
1661347500410445800,6.90644580078125,-0.05579318478703499,-0.008122635073959827,-0.12357058376073837
1661347500420502800,6.916502685546875,-0.06325002759695053,-0.023568958044052124,-0.10146636515855789
1661347500430559700,6.926559814453125,-0.07483477145433426,-0.03741738572716713,-0.07922898232936859
1661347500440616700,6.93661669921875,-0.08375635743141174,-0.0294279083609581,-0.045140545815229416
1661347500450673700,6.946673583984375,-0.0894821435213089,-0.005459476262331009,-0.010253162123262882
1661347500460730400,6.95673046875,-0.0954742506146431,0.014247900806367397,0.002929474925622344
1661347500470787000,6.966787109375,-0.10106688737869263,0.018775271251797676,-0.017443692311644554
1661347500480844000,6.976843994140625,-0.10000162571668625,0.003861580742523074,-0.06205160543322563
1661347500490900700,6.986900634765625,-0.09294424951076508,-0.023169483989477158,-0.10759162902832031
1661347500500957400,6.99695751953125,-0.08056056499481201,-0.06817687302827835,-0.14407691359519958
1661347500511014100,7.00701416015625,-0.07976161688566208,-0.10879004746675491,-0.1789642870426178
1661347500521071000,7.017071044921875,-0.09414267539978027,-0.13182637095451355,-0.2095906287431717
1661347500531127800,7.0271279296875,-0.11145320534706116,-0.12317110598087311,-0.20919114351272583
1661347500541184500,7.0371845703125,-0.12716585397720337,-0.0949416235089302,-0.1825595498085022
1661347500551241200,7.0472412109375,-0.13701952993869781,-0.0894821435213089,-0.1525990217924118
1661347500561298200,7.057298095703125,-0.14207953214645386,-0.11864373832941055,-0.1356879621744156
1661347500571355000,7.06735498046875,-0.14021532237529755,-0.15765902400016785,-0.13249216973781586
1661347500581411600,7.07741162109375,-0.1327584832906723,-0.19241324067115784,-0.12636689841747284
1661347500591468300,7.08746826171875,-0.12383689731359482,-0.2205095738172531,-0.11158636957406998
1661347500601525200,7.097525146484375,-0.12024163454771042,-0.24461115896701813,-0.09227846562862396
1661347500611582000,7.10758203125,-0.1284974217414856,-0.25845959782600403,-0.07776424288749695
1661347500621638700,7.117638671875,-0.14580796658992767,-0.2563290596008301,-0.06711161136627197
1661347500631695600,7.127695556640625,-0.16258586943149567,-0.2336922138929367,-0.05898897349834442
1661347500641752300,7.13775244140625,-0.1813611388206482,-0.204264298081398,-0.04793686419725418
1661347500651809000,7.14780908203125,-0.19374482333660126,-0.1892174482345581,-0.03795001655817032
1661347500661865700,7.15786572265625,-0.19414429366588593,-0.21092219650745392,-0.027430538088083267
1661347500671922700,7.167922607421875,-0.19241324067115784,-0.24301326274871826,-0.029028434306383133
1661347500681979400,7.1779794921875,-0.1928127259016037,-0.2649843394756317,-0.03448791056871414
1661347500692036000,7.1880361328125,-0.19174745678901672,-0.28083011507987976,-0.02583264373242855
1661347500702093000,7.198093017578125,-0.18349166214466095,-0.2882869839668274,-0.0002663159102667123
1661347500712150000,7.20814990234375,-0.17110797762870789,-0.2882869839668274,0.028362644836306572
1661347500722207200,7.218207275390625,-0.1615206003189087,-0.2773680090904236,0.03861580789089203
1661347500732264200,7.22826416015625,-0.15299849212169647,-0.24900537729263306,0.029161592945456505
1661347500742321200,7.238321044921875,-0.14154690504074097,-0.2222406268119812,0.002929474925622344
1661347500752378400,7.24837841796875,-0.12876373529434204,-0.21771325170993805,-0.039015281945466995
1661347500762435000,7.25843505859375,-0.12383689731359482,-0.2191779911518097,-0.08282424509525299
1661347500772492000,7.268491943359375,-0.12769848108291626,-0.1970737725496292,-0.10998847335577011
1661347500782548700,7.278548828125,-0.12889690697193146,-0.1567269116640091,-0.10199899226427078
1661347500792605400,7.28860546875,-0.12357058376073837,-0.1284974217414856,-0.06311687082052231
1661347500802662100,7.298662109375,-0.11704584211111069,-0.12689952552318573,-0.015180006623268127
1661347500812719000,7.308718994140625,-0.11185268312692642,-0.12317110598087311,0.024900536984205246
1661347500822775800,7.31877587890625,-0.10745847225189209,-0.11118689179420471,0.051798444241285324
1661347500832832500,7.32883251953125,-0.10106688737869263,-0.0997353047132492,0.07816372066736221
1661347500842889500,7.338889404296875,-0.08841688185930252,-0.09241162240505219,0.10652636736631393
1661347500852946200,7.3489462890625,-0.06857634335756302,-0.09600688517093658,0.12357058376073837
1661347500863003000,7.3590029296875,-0.033422645181417465,-0.10865689069032669,0.118910051882267
1661347500873059600,7.3690595703125,0.0011984215816482902,-0.11717899888753891,0.09374319761991501
1661347500883116500,7.379116455078125,0.02383527345955372,-0.12929637730121613,0.054994236677885056
1661347500893173200,7.38917333984375,0.03195790946483612,-0.12636689841747284,0.014913691207766533
1661347500903230000,7.39922998046875,0.03235738351941109,-0.10559425503015518,-0.016378428786993027
1661347500913286700,7.40928662109375,0.030226856470108032,-0.0774979293346405,-0.04221107065677643
1661347500923343600,7.419343505859375,0.024900536984205246,-0.05472791939973831,-0.0636495053768158
1661347500933400300,7.429400390625,0.016378428786993027,-0.02569948509335518,-0.05938844755291939
1661347500943457000,7.43945703125,0.006524739786982536,0.011717899702489376,-0.02383527345955372
1661347500953513700,7.449513671875,0.0006657897611148655,0.04407528415322304,0.03435475379228592
1661347500963571000,7.459571044921875,0.0074568456038832664,0.04247738793492317,0.0732368752360344
1661347500973628000,7.4696279296875,0.03448791056871414,-0.00892158318310976,0.08069372177124023
1661347500983684900,7.479684814453125,0.06578002870082855,-0.066046342253685,0.06857634335756302
1661347500993741800,7.489741943359375,0.08961530029773712,-0.10373004525899887,0.035819489508867264
1661347501003799000,7.499799072265625,0.09986846894025803,-0.12583427131175995,-0.016245270147919655
1661347501013856000,7.50985595703125,0.10133320093154907,-0.13608743250370026,-0.06964161247015
1661347501023913000,7.519912841796875,0.1002679392695427,-0.1459411233663559,-0.10998847335577011
1661347501033969700,7.5299697265625,0.09867004305124283,-0.1435442715883255,-0.13608743250370026
1661347501044026600,7.540026611328125,0.09480846673250198,-0.12157320976257324,-0.148870587348938
1661347501054083300,7.550083251953125,0.08921582996845245,-0.0930774137377739,-0.16445007920265198
1661347501064140000,7.56014013671875,0.07949529588222504,-0.056059498339891434,-0.17829850316047668
1661347501074196700,7.57019677734375,0.07310371845960617,0.004527370445430279,-0.18775272369384766
1661347501084253700,7.580253662109375,0.07283740490674973,0.04460791498422623,-0.19893798232078552
1661347501094310400,7.590310302734375,0.08269108831882477,0.0564589723944664,-0.21451745927333832
1661347501104367000,7.6003671875,0.10266478359699249,0.052464235574007034,-0.22716747224330902
1661347501114423800,7.610423828125,0.1363537460565567,0.03941475600004196,-0.22663484513759613
1661347501124480800,7.620480712890625,0.1765674501657486,0.030892645940184593,-0.19840535521507263
1661347501134537500,7.630537353515625,0.19893798232078552,0.031558435410261154,-0.13888375461101532
1661347501144594200,7.64059423828125,0.20319904386997223,0.03755054250359535,-0.06644582003355026
1661347501154651100,7.650651123046875,0.20279955863952637,0.03968106955289841,-0.01318263728171587
1661347501164707800,7.660707763671875,0.20386482775211334,0.029161592945456505,0.004261054564267397
1661347501174764500,7.6707646484375,0.20466378331184387,0.015579480677843094,-0.007856319658458233
1661347501184821500,7.680821533203125,0.20253324508666992,0,-0.03262370079755783
1661347501194878500,7.69087841796875,0.19747324287891388,-0.0342215932905674,-0.06351634114980698
1661347501204935400,7.700935302734375,0.19148114323616028,-0.07962846010923386,-0.10146636515855789
1661347501214992600,7.71099267578125,0.18176060914993286,-0.1093226820230484,-0.118910051882267
1661347501225049600,7.721049560546875,0.1729721873998642,-0.12357058376073837,-0.10080057382583618
1661347501235106600,7.7311064453125,0.16378428041934967,-0.13608743250370026,-0.06325002759695053
1661347501245163800,7.741163818359375,0.15526217222213745,-0.16951008141040802,-0.03488738462328911
1661347501255220700,7.751220703125,0.14500901103019714,-0.2006690353155136,-0.017310533672571182
1661347501265277400,7.76127734375,0.13915006816387177,-0.21638168394565582,-0.005592633970081806
1661347501275334100,7.771334228515625,0.13435637950897217,-0.2275669425725937,-0.0021305272821336985
1661347501285390800,7.781390869140625,0.1284974217414856,-0.23688800632953644,-0.008788425475358963
1661347501295447800,7.79144775390625,0.1237037405371666,-0.2541985511779785,-0.026631591841578484
1661347501305504500,7.80150439453125,0.11691268533468246,-0.29161593317985535,-0.04860265180468559
1661347501315561200,7.811561279296875,0.11038794368505478,-0.3399522602558136,-0.06777740269899368
1661347501325618000,7.821617919921875,0.10120004415512085,-0.3743070065975189,-0.08375635743141174
1661347501335675000,7.8316748046875,0.0834900364279747,-0.3945470154285431,-0.09587372839450836
1661347501345731600,7.841731689453125,0.06431528925895691,-0.4102596640586853,-0.105727419257164
1661347501355788300,7.851788330078125,0.04061317816376686,-0.40093860030174255,-0.10080057382583618
1661347501365845200,7.86184521484375,0.009986846707761288,-0.3761712312698364,-0.08522108942270279
1661347501375902000,7.87190185546875,-0.019441060721874237,-0.37284228205680847,-0.08056056499481201
1661347501385958700,7.881958740234375,-0.03435475379228592,-0.40453386306762695,-0.08455529808998108
1661347501396015600,7.892015625,-0.047537390142679214,-0.4565986394882202,-0.09840372949838638
1661347501406072600,7.902072509765625,-0.06351634114980698,-0.5099949836730957,-0.12929637730121613
1661347501416129500,7.912129638671875,-0.07483477145433426,-0.5526055097579956,-0.1760348230600357
1661347501426186800,7.922186767578125,-0.07736477255821228,-0.5724460482597351,-0.22450430691242218
1661347501436243700,7.93224365234375,-0.08189214020967484,-0.5813676118850708,-0.2637858986854553
1661347501446300700,7.94230078125,-0.0978710949420929,-0.5986781716346741,-0.2684464454650879
1661347501456358000,7.95235791015625,-0.11424952745437622,-0.615056574344635,-0.2354232668876648
1661347501466414800,7.962414794921875,-0.12929637730121613,-0.6253097653388977,-0.1765674501657486
1661347501476471800,7.972471923828125,-0.14580796658992767,-0.6348971128463745,-0.11638005077838898
1661347501486528500,7.982528564453125,-0.1628521829843521,-0.6478134393692017,-0.0636495053768158
1661347501496585200,7.992585205078125,-0.18002955615520477,-0.6579334735870361,-0.024234747514128685
1661347501506642000,8.002641845703126,-0.20279955863952637,-0.6611292362213135,-0.008788425475358963
1661347501516699000,8.012698974609375,-0.21651484072208405,-0.6558029055595398,-0.017443692311644554
1661347501526755600,8.022755615234376,-0.21225377917289734,-0.642487108707428,-0.04500738903880119
1661347501536812300,8.032812255859374,-0.1952095627784729,-0.619983434677124,-0.0762995108962059
1661347501546869000,8.042868896484375,-0.1772332340478897,-0.6036050319671631,-0.10466215014457703
1661347501556926000,8.052926025390626,-0.16005586087703705,-0.6036050319671631,-0.12650005519390106
1661347501566982700,8.062982666015625,-0.14913691580295563,-0.5956155061721802,-0.13502216339111328
1661347501577039400,8.073039306640625,-0.15006901323795319,-0.5696497559547424,-0.12383689731359482
1661347501587096000,8.083095947265624,-0.15233269333839417,-0.5226449966430664,-0.09627319872379303
1661347501597153000,8.093153076171875,-0.1519332230091095,-0.4691154658794403,-0.052863709628582
1661347501607210200,8.103210205078126,-0.1495363861322403,-0.43036651611328125,0.0003994738799519837
1661347501617267200,8.11326708984375,-0.14913691580295563,-0.41159123182296753,0.045806337147951126
1661347501627324200,8.12332421875,-0.1442100703716278,-0.4001396596431732,0.07483477145433426
1661347501637381400,8.13338134765625,-0.13249216973781586,-0.4090612530708313,0.0822916179895401
1661347501647438300,8.143438232421875,-0.122505322098732,-0.4403533637523651,0.07310371845960617
1661347501657495300,8.153495361328124,-0.11851058155298233,-0.4776375889778137,0.04607265070080757
1661347501667552300,8.16355224609375,-0.11438268423080444,-0.5103944540023804,0.006791055668145418
1661347501677609500,8.173609375,-0.10532794147729874,-0.5355613231658936,-0.03701791167259216
1661347501687666200,8.183666259765625,-0.09161267429590225,-0.524775505065918,-0.06578002870082855
1661347501697723000,8.193722900390625,-0.08841688185930252,-0.4709796905517578,-0.07004108279943466
1661347501707779600,8.203779541015624,-0.0954742506146431,-0.4233091473579407,-0.05392897129058838
1661347501717836500,8.21383642578125,-0.10359688848257065,-0.40346860885620117,-0.03515370190143585
1661347501727893200,8.223893310546876,-0.10146636515855789,-0.392682820558548,-0.024767380207777023
1661347501737950000,8.233949951171875,-0.09094688296318054,-0.37497279047966003,-0.015579480677843094
1661347501748007000,8.2440068359375,-0.07550056278705597,-0.3700459599494934,-0.013448953628540039
1661347501758063600,8.254063720703124,-0.0552605502307415,-0.3838943839073181,-0.015712639316916466
1661347501768120300,8.264120361328125,-0.03328948840498924,-0.40333545207977295,-0.02024000883102417
1661347501778177000,8.274177001953126,-0.01850895583629608,-0.40440070629119873,-0.01850895583629608
1661347501788234000,8.28423388671875,-0.011584741994738579,-0.3909517526626587,-0.01597895473241806
1661347501798291000,8.294291015625,-0.006391582079231739,-0.3693801760673523,-0.01784316636621952
1661347501808348200,8.30434814453125,0.0003994738799519837,-0.3327617347240448,-0.017044218257069588
1661347501818405000,8.314405029296875,0.005992108024656773,-0.2660495936870575,-0.00985368900001049
1661347501828462000,8.324462158203126,0.006524739786982536,-0.1657816469669342,0.002796316985040903
1661347501838519000,8.33451904296875,0.005459476262331009,-0.08428898453712463,0.014913691207766533
1661347501848576300,8.344576171875,0.008655266836285591,-0.0330231711268425,0.02769685536623001
1661347501858633200,8.35463330078125,0.018775271251797676,0.02024000883102417,0.03169159218668938
1661347501868690200,8.364690185546875,0.03235738351941109,0.05952160432934761,0.025300011038780212
1661347501878747100,8.3747470703125,0.04980107396841049,0.06751108169555664,0.009986846707761288
1661347501888804000,8.38480419921875,0.059787921607494354,0.06311687082052231,-0.005592633970081806
1661347501898860800,8.39486083984375,0.06644582003355026,0.05685844644904137,-0.011052110232412815
1661347501908917500,8.40491748046875,0.07523424178361893,0.04900212585926056,-0.004261054564267397
1661347501918974500,8.414974365234375,0.08495477586984634,0.03435475379228592,0.007190529722720385
1661347501929031200,8.42503125,0.09733846783638,0.008788425475358963,0.018908429890871048
1661347501939088000,8.435087890625,0.10665952414274216,0.015180006623268127,0.05153212696313858
1661347501949144800,8.445144775390625,0.10772478580474854,0.09720530360937119,0.11158636957406998
1661347501959201500,8.455201416015624,0.1002679392695427,0.2155827283859253,0.17443692684173584
1661347501969258200,8.46525830078125,0.09560741484165192,0.31984540820121765,0.21065588295459747
1661347501979315200,8.475315185546876,0.0954742506146431,0.3986749053001404,0.2077264040708542
1661347501989372200,8.4853720703125,0.10186583548784256,0.4565986394882202,0.1765674501657486
1661347501999429000,8.49542919921875,0.11611373722553253,0.4715123176574707,0.14381058514118195
1661347502009486000,8.505486083984374,0.13062795996665955,0.45553335547447205,0.11930952966213226
1661347502019543300,8.515543212890625,0.13968269526958466,0.4299670457839966,0.10373004525899887
1661347502029600300,8.525600341796874,0.14500901103019714,0.3784348964691162,0.10186583548784256
1661347502039657200,8.5356572265625,0.15273217856884003,0.29467856884002686,0.09800425171852112
1661347502049714200,8.545714111328126,0.16737954318523407,0.18362481892108917,0.08655267208814621
1661347502059771400,8.555771484375,0.1825595498085022,0.10319741815328598,0.07856319099664688
1661347502069828400,8.565828369140625,0.19321219623088837,0.11757847666740417,0.10945583879947662
1661347502079885300,8.57588525390625,0.2000032514333725,0.21291956305503845,0.19028271734714508
1661347502089942300,8.5859423828125,0.21065588295459747,0.3304980397224426,0.2878875136375427
1661347502099999000,8.5959990234375,0.2277000993490219,0.45313653349876404,0.37390753626823425
1661347502110056000,8.606055908203125,0.23875221610069275,0.5609944462776184,0.43103229999542236
1661347502120112600,8.616112548828125,0.2414153665304184,0.6021402478218079,0.4577970504760742
1661347502130169300,8.62616943359375,0.23648852109909058,0.5893571376800537,0.46205809712409973
1661347502140226000,8.63622607421875,0.22117535769939423,0.5439502596855164,0.44781020283699036
1661347502150283000,8.646282958984376,0.19188061356544495,0.5141228437423706,0.39667755365371704
1661347502160339700,8.656339599609375,0.1502021700143814,0.5169191956520081,0.2985401451587677
1661347502170396400,8.666396484375,0.0966726765036583,0.5122586488723755,0.1502021700143814
1661347502180453400,8.676453369140624,0.03382211923599243,0.49574705958366394,-0.01771000772714615
1661347502190510300,8.68651025390625,0.010652636177837849,0.4542017877101898,-0.1832253485918045
1661347502200567600,8.696567626953126,-0.045140545815229416,0.3958786129951477,-0.31132328510284424
1661347502210624500,8.70662451171875,-0.04860265180468559,0.45207124948501587,-0.37563860416412354
1661347502220681500,8.716681396484375,-0.0366184376180172,0.5087965726852417,-0.3683148920536041
1661347502230738700,8.72673876953125,0.005459476262331009,0.530900776386261,-0.30613014101982117
1661347502240795600,8.736795654296875,0.07097318768501282,0.5002744197845459,-0.20026956498622894
1661347502250852600,8.7468525390625,0.14128059148788452,0.4131891429424286,-0.08495477586984634
1661347502260909600,8.75690966796875,0.19680745899677277,0.30599698424339294,0.020506324246525764
1661347502270966800,8.766966796875,0.2336922138929367,0.22623535990715027,0.11864373832941055
1661347502281023700,8.777023681640625,0.245010644197464,0.203065887093544,0.203065887093544
1661347502291080700,8.787080810546875,0.2390185296535492,0.20200061798095703,0.2659164369106293
1661347502301137700,8.7971376953125,0.22011010348796844,0.21651484072208405,0.3021354079246521
1661347502311194400,8.8071943359375,0.18548902869224548,0.23861905932426453,0.31079065799713135
1661347502321251300,8.817251220703126,0.1459411233663559,0.24594274163246155,0.28908592462539673
1661347502331308000,8.82730810546875,0.11677952855825424,0.2587259113788605,0.24474431574344635
1661347502341364700,8.83736474609375,0.10186583548784256,0.27949854731559753,0.19307903945446014
1661347502351421400,8.84742138671875,0.10186583548784256,0.2912164330482483,0.1483379602432251
1661347502361478400,8.857478515625,0.10186583548784256,0.2914827764034271,0.11544794589281082
1661347502371535000,8.86753515625,0.0990695208311081,0.2816290855407715,0.07856319099664688
1661347502381592000,8.877592041015625,0.09440898895263672,0.24035011231899261,0.030626330524683
1661347502391649000,8.88764892578125,0.09334372729063034,0.1856221854686737,-0.013582111336290836
1661347502401706000,8.8977060546875,0.08815056830644608,0.15006901323795319,-0.046871598809957504
1661347502411763200,8.90776318359375,0.06471476703882217,0.1430116444826126,-0.07962846010923386
1661347502421820200,8.917820068359376,0.03315633162856102,0.14314480125904083,-0.11677952855825424
1661347502431877000,8.927877197265625,0.00013315795513335615,0.1267663687467575,-0.15419691801071167
1661347502441934000,8.93793408203125,-0.0366184376180172,0.10266478359699249,-0.18722008168697357
1661347502451991300,8.9479912109375,-0.066046342253685,0.10040109604597092,-0.21584904193878174
1661347502462048300,8.95804833984375,-0.08482161909341812,0.1399490088224411,-0.24181485176086426
1661347502472105200,8.968105224609374,-0.09334372729063034,0.20586219429969788,-0.2577938139438629
1661347502482162400,8.978162353515625,-0.09361004084348679,0.26511749625205994,-0.2456764280796051
1661347502492219400,8.988219482421876,-0.08655267208814621,0.30786117911338806,-0.2119874656200409
1661347502502276400,8.9982763671875,-0.07736477255821228,0.3178480267524719,-0.16724638640880585
1661347502512333300,9.008333251953125,-0.06804371625185013,0.2836264371871948,-0.12210584431886673
1661347502522390300,9.018390380859374,-0.059255290776491165,0.24221432209014893,-0.06205160543322563
1661347502532447200,9.028447265625,-0.04966791719198227,0.212653249502182,0.01850895583629608
1661347502542504000,9.03850390625,-0.03981423005461693,0.19907113909721375,0.08442214131355286
1661347502552560600,9.048560546875,-0.03874896466732025,0.18748639523983002,0.10120004415512085
1661347502562617300,9.058617431640625,-0.048203181475400925,0.17936377227306366,0.06325002759695053
1661347502572674300,9.06867431640625,-0.05712476372718811,0.17430377006530762,-0.0035952648613601923
1661347502582731000,9.07873095703125,-0.06351634114980698,0.1753690242767334,-0.06285055726766586
1661347502592787700,9.08878759765625,-0.05845634266734123,0.19907113909721375,-0.10013478249311447
1661347502602845000,9.098844970703125,-0.050067391246557236,0.21291956305503845,-0.11504847556352615
1661347502612902000,9.10890185546875,-0.0456731803715229,0.19773955643177032,-0.11118689179420471
1661347502622958800,9.118958740234374,-0.034088436514139175,0.17190691828727722,-0.09773793816566467
1661347502633015800,9.129015869140625,-0.017044218257069588,0.14514216780662537,-0.07843003422021866
1661347502643073000,9.139072998046874,0.0018642114009708166,0.12703268229961395,-0.054994236677885056
1661347502653130000,9.1491298828125,0.021038956940174103,0.1249021589756012,-0.019840534776449203
1661347502663187000,9.15918701171875,0.0270310640335083,0.13675321638584137,0.023036325350403786
1661347502673244200,9.169244140625,0.019840534776449203,0.15686006844043732,0.06258423626422882
1661347502683301000,9.179301025390625,0.0021305272821336985,0.19267955422401428,0.08309056609869003
1661347502693358000,9.189358154296874,-0.010652636177837849,0.2347574681043625,0.06897582113742828
1661347502703415000,9.1994150390625,-0.016911059617996216,0.262986958026886,0.025300011038780212
1661347502713472300,9.20947216796875,-0.01597895473241806,0.26631590723991394,-0.019174745306372643
1661347502723529200,9.219529296875,-0.018109481781721115,0.24967116117477417,-0.052464235574007034
1661347502733586200,9.229586181640625,-0.02450106292963028,0.21771325170993805,-0.06737792491912842
1661347502743643100,9.23964306640625,-0.031158961355686188,0.2006690353155136,-0.07137266546487808
1661347502753700400,9.249700439453125,-0.03262370079755783,0.212653249502182,-0.06072002649307251
1661347502763757300,9.25975732421875,-0.032890014350414276,0.23755379021167755,-0.032224226742982864
1661347502773814000,9.26981396484375,-0.02277000993490219,0.2569948434829712,0.017443692311644554
1661347502783871000,9.27987109375,-0.006657897960394621,0.26458486914634705,0.07856319099664688
1661347502793927700,9.289927734375,0.005725792143493891,0.24008379876613617,0.12144005298614502
1661347502803984400,9.299984375,0.017044218257069588,0.21305273473262787,0.13209268450737
1661347502814041000,9.310041015625,0.03235738351941109,0.24487747251987457,0.12929637730121613
1661347502824098000,9.32009814453125,0.04767054691910744,0.3185138404369354,0.12210584431886673
1661347502834154800,9.33015478515625,0.0624510794878006,0.3898864984512329,0.11371689289808273
1661347502844212000,9.3402119140625,0.07709845900535583,0.41958072781562805,0.10199899226427078
1661347502854269000,9.35026904296875,0.08535424619913101,0.41105860471725464,0.09028109163045883
1661347502864326000,9.360325927734374,0.08855003863573074,0.3862912356853485,0.08841688185930252
1661347502874382800,9.3703828125,0.09121319651603699,0.35393384099006653,0.10120004415512085
1661347502884440000,9.380440185546876,0.09014793485403061,0.3231743574142456,0.13848426938056946
1661347502894497000,9.3904970703125,0.08388951420783997,0.3242396116256714,0.19734008610248566
1661347502904554000,9.400553955078125,0.08455529808998108,0.34021857380867004,0.25845959782600403
1661347502914611000,9.41061083984375,0.1009337306022644,0.3387538492679596,0.31025803089141846
1661347502924668200,9.420668212890625,0.12050794810056686,0.3332943618297577,0.349672794342041
1661347502934725000,9.43072509765625,0.13595427572727203,0.3242396116256714,0.3653854429721832
1661347502944782000,9.440781982421875,0.1495363861322403,0.3285006880760193,0.3304980397224426
1661347502954839300,9.45083935546875,0.17270587384700775,0.3549990952014923,0.2716422379016876
1661347502964896300,9.460896240234375,0.19987009465694427,0.3635212182998657,0.24288010597229004
1661347502974953200,9.470953125,0.21212062239646912,0.36365437507629395,0.25206801295280457
1661347502985010200,9.48101025390625,0.2006690353155136,0.35300174355506897,0.26818013191223145
1661347502995067400,9.4910673828125,0.17803218960762024,0.35153698921203613,0.28149592876434326
1661347503005124400,9.501124267578126,0.14820480346679688,0.38349491357803345,0.3028011918067932
1661347503015181300,9.511181396484375,0.12210584431886673,0.4217112362384796,0.32410645484924316
1661347503025238500,9.521238525390626,0.11118689179420471,0.4451470375061035,0.3304980397224426
1661347503035295500,9.53129541015625,0.10972215235233307,0.45366916060447693,0.3368896245956421
1661347503045352400,9.5413525390625,0.10239847004413605,0.4395544230937958,0.33902016282081604
1661347503055409400,9.551409423828124,0.09693899005651474,0.40160438418388367,0.3093259334564209
1661347503065466600,9.561466552734375,0.10879004746675491,0.3315632939338684,0.25965800881385803
1661347503075523600,9.571523681640626,0.1346226930618286,0.2576606571674347,0.2191779911518097
1661347503085580300,9.581580322265625,0.15952323377132416,0.17430377006530762,0.18242639303207397
1661347503095637000,9.591636962890625,0.17470324039459229,0.07590003311634064,0.11930952966213226
1661347503105694000,9.60169384765625,0.1808284968137741,0.012383690103888512,0.048735812306404114
1661347503115750700,9.611750732421875,0.1657816469669342,0.012117373757064342,0.0002663159102667123
1661347503125807400,9.621807373046876,0.12956269085407257,0.04354264959692955,-0.009587372653186321
1661347503135864300,9.6318642578125,0.08522108942270279,0.105727419257164,0.0270310640335083
1661347503145921300,9.64192138671875,0.0342215932905674,0.2143843024969101,0.10159952193498611
1661347503155978200,9.651978271484374,-0.0006657897611148655,0.34501224756240845,0.19427745044231415
1661347503166035500,9.662035400390625,-0.011984216049313545,0.425306499004364,0.28202855587005615
1661347503176092400,9.672092529296876,0.005459476262331009,0.4589954614639282,0.32450592517852783
1661347503186149400,9.6821494140625,0.040213704109191895,0.4239749312400818,0.3257043659687042
1661347503196206300,9.692206298828125,0.0739026665687561,0.3628554344177246,0.2985401451587677
1661347503206263600,9.702263671875,0.09880319982767105,0.3178480267524719,0.24953800439834595
1661347503216320500,9.712320556640625,0.11358373612165451,0.3178480267524719,0.19840535521507263
1661347503226377500,9.72237744140625,0.1201084777712822,0.3585943877696991,0.1573926955461502
1661347503236434400,9.732434326171875,0.1165132075548172,0.41478702425956726,0.13315795361995697
1661347503246491600,9.74249169921875,0.11504847556352615,0.4559328258037567,0.13608743250370026
1661347503256548600,9.752548583984375,0.11677952855825424,0.4733765423297882,0.16857796907424927
1661347503266605600,9.76260546875,0.11118689179420471,0.48682549595832825,0.2155827283859253
1661347503276662800,9.772662841796874,0.09387636184692383,0.482963889837265,0.2684464454650879
1661347503286719700,9.7827197265625,0.07430213689804077,0.4601939022541046,0.3166496157646179
1661347503296776700,9.792776611328126,0.0600542388856411,0.4402202069759369,0.3621896505355835
1661347503306833700,9.802833740234375,0.054328445345163345,0.4275701940059662,0.3952127993106842
1661347503316891000,9.812890869140626,0.05020054802298546,0.4312986135482788,0.3941475450992584
1661347503326947800,9.82294775390625,0.04767054691910744,0.4371575713157654,0.3454117476940155
1661347503337004800,9.8330048828125,0.045806337147951126,0.4444812536239624,0.25433170795440674
1661347503347062000,9.84306201171875,0.04340949282050133,0.4487423002719879,0.12743216753005981
1661347503357119000,9.853118896484375,0.042610544711351395,0.44421494007110596,-0.01957421936094761
1661347503367176000,9.863176025390626,0.04913528636097908,0.4324970245361328,-0.1651158630847931
1661347503377233000,9.87323291015625,0.0576573945581913,0.4097270369529724,-0.28083011507987976
1661347503387290000,9.8832900390625,0.05819002538919449,0.37883439660072327,-0.3490070104598999
1661347503397347000,9.89334716796875,0.04434159770607948,0.3524691164493561,-0.377103328704834
1661347503407404000,9.903404052734375,0.02769685536623001,0.3302317261695862,-0.37989965081214905
1661347503417461000,9.9134609375,0.023169483989477158,0.3082606792449951,-0.35899385809898376
1661347503427518200,9.923518310546875,0.019840534776449203,0.30466538667678833,-0.31132328510284424
1661347503437575200,9.9335751953125,0.016777902841567993,0.3315632939338684,-0.24181485176086426
1661347503447632100,9.943632080078125,0.011052110232412815,0.3699128031730652,-0.1796300858259201
1661347503457689300,9.953689453125,0.010652636177837849,0.3976096510887146,-0.14381058514118195
1661347503467746300,9.963746337890624,0.00013315795513335615,0.3998733460903168,-0.13169321417808533
1661347503477803300,9.97380322265625,-0.01664474420249462,0.3837612271308899,-0.138217955827713
1661347503487860200,9.983860107421876,-0.03688475489616394,0.3688475489616394,-0.15100112557411194
1661347503497917400,9.99391748046875,-0.06032055243849754,0.35473278164863586,-0.1579253375530243
1661347503507974400,10.003974365234376,-0.08668582886457443,0.3230412006378174,-0.16431692242622375
1661347503518031400,10.01403125,-0.11278478801250458,0.28269433975219727,-0.17789903283119202
1661347503528088600,10.024088623046875,-0.12383689731359482,0.2667153775691986,-0.1988048255443573
1661347503538145500,10.0341455078125,-0.12183953076601028,0.26098960638046265,-0.20279955863952637
1661347503548202500,10.044202392578125,-0.1129179447889328,0.2720417082309723,-0.20160114765167236
1661347503558259500,10.054259521484376,-0.102132149040699,0.2677806615829468,-0.21758009493350983
1661347503568316700,10.064316650390625,-0.07922898232936859,0.2486059069633484,-0.25566327571868896
1661347503578373600,10.07437353515625,-0.051798444241285324,0.2384859025478363,-0.29640960693359375
1661347503588430600,10.0844306640625,-0.03328948840498924,0.24461115896701813,-0.3326285779476166
1661347503598487600,10.094487548828125,-0.02197106182575226,0.22543641924858093,-0.36858120560646057
1661347503608544800,10.104544677734374,-0.016911059617996216,0.17749954760074615,-0.4066644012928009
1661347503618601700,10.114601806640625,-0.017044218257069588,0.12077426165342331,-0.43329599499702454
1661347503628658700,10.12465869140625,-0.022370535880327225,0.08482161909341812,-0.43862229585647583
1661347503638716000,10.1347158203125,-0.029161592945456505,0.07097318768501282,-0.4301002025604248
1661347503648772900,10.14477294921875,-0.036485280841588974,0.07070687413215637,-0.41225701570510864
1661347503658829800,10.154829833984374,-0.045806337147951126,0.0727042406797409,-0.3880222737789154
1661347503668886800,10.16488671875,-0.053662657737731934,0.066046342253685,-0.35300174355506897
1661347503678944000,10.174944091796876,-0.05898897349834442,0.05632581561803818,-0.3214432895183563
1661347503689001000,10.1850009765625,-0.04713791608810425,0.04780370742082596,-0.30013802647590637
1661347503699058000,10.195057861328126,-0.028628960251808167,0.031558435410261154,-0.27723485231399536
1661347503709115100,10.205115234375,-0.005725792143493891,0.01318263728171587,-0.2528669536113739
1661347503719172000,10.215172119140625,0.014913691207766533,-0.010386320762336254,-0.2426137924194336
1661347503729229000,10.22522900390625,0.030493171885609627,-0.025965800508856773,-0.253532737493515
1661347503739286000,10.2352861328125,0.03795001655817032,-0.04061317816376686,-0.2761695981025696
1661347503749343200,10.24534326171875,0.035819489508867264,-0.051265813410282135,-0.2968090772628784
1661347503759400200,10.255400146484375,0.02463422156870365,-0.053662657737731934,-0.2986733019351959
1661347503769457200,10.26545703125,0.008122635073959827,-0.04487423226237297,-0.28868645429611206
1661347503779514400,10.275514404296874,-0.0070573715493083,-0.0366184376180172,-0.26871275901794434
1661347503789571300,10.2855712890625,-0.02157158963382244,-0.04913528636097908,-0.24354590475559235
1661347503799628300,10.295628173828124,-0.0366184376180172,-0.08428898453712463,-0.2155827283859253
1661347503809685200,10.305685302734375,-0.045806337147951126,-0.10945583879947662,-0.1796300858259201
1661347503819742500,10.315742431640626,-0.0504668653011322,-0.11478215456008911,-0.1442100703716278
1661347503829799400,10.32579931640625,-0.05352949723601341,-0.11038794368505478,-0.13129374384880066
1661347503839856400,10.3358564453125,-0.05099949613213539,-0.12263847887516022,-0.15845796465873718
1661347503849913300,10.345913330078124,-0.039015281945466995,-0.15765902400016785,-0.21225377917289734
1661347503859970600,10.355970458984375,-0.028096329420804977,-0.18109482526779175,-0.2601906359195709
1661347503870027500,10.366027587890626,-0.029694223776459694,-0.19361166656017303,-0.27483803033828735
1661347503880084500,10.37608447265625,-0.04673844203352928,-0.1964079886674881,-0.25499749183654785
1661347503890141700,10.3861416015625,-0.07163897901773453,-0.19787272810935974,-0.21518325805664062
1661347503900198700,10.39619873046875,-0.09627319872379303,-0.20626167953014374,-0.17789903283119202
1661347503910255600,10.406255615234375,-0.11598058044910431,-0.2174469381570816,-0.15526217222213745
1661347503920312600,10.4163125,-0.12956269085407257,-0.22596904635429382,-0.1406148076057434
1661347503930369800,10.426369873046875,-0.13981585204601288,-0.24461115896701813,-0.12716585397720337
1661347503940426800,10.4364267578125,-0.14580796658992767,-0.27670222520828247,-0.10253162682056427
1661347503950483700,10.446483642578125,-0.14847111701965332,-0.2954775094985962,-0.0727042406797409
1661347503960541000,10.456541015625,-0.15086796879768372,-0.2929475009441376,-0.06285055726766586
1661347503970598000,10.466597900390624,-0.15060164034366608,-0.27776750922203064,-0.07097318768501282
1661347503980654800,10.47665478515625,-0.14847111701965332,-0.25326642394065857,-0.0954742506146431
1661347503990711800,10.4867119140625,-0.14700637757778168,-0.21771325170993805,-0.14460954070091248
1661347504000769000,10.49676904296875,-0.14194637537002563,-0.17909744381904602,-0.21478378772735596
1661347504010826000,10.506825927734376,-0.14367742836475372,-0.1459411233663559,-0.2876211702823639
1661347504020883000,10.516883056640625,-0.1579253375530243,-0.15566164255142212,-0.34447962045669556
1661347504030940000,10.52693994140625,-0.1873532384634018,-0.22090904414653778,-0.3821633458137512
1661347504040997000,10.5369970703125,-0.22077588737010956,-0.3004043400287628,-0.39840859174728394
1661347504051054000,10.54705419921875,-0.24887222051620483,-0.3159838318824768,-0.3796333372592926
1661347504061111000,10.557111083984376,-0.2587259113788605,-0.28668907284736633,-0.32170963287353516
1661347504071168300,10.567168212890625,-0.23955115675926208,-0.2648511826992035,-0.25845959782600403
1661347504081225200,10.57722509765625,-0.19481009244918823,-0.27670222520828247,-0.2311622053384781
1661347504091282200,10.5872822265625,-0.1423458606004715,-0.2834932804107666,-0.24993747472763062
1661347504101339100,10.597339111328125,-0.11438268423080444,-0.26325327157974243,-0.294412225484848
1661347504111396400,10.607396240234374,-0.11824426054954529,-0.24048326909542084,-0.3368896245956421
1661347504121453300,10.617453369140625,-0.12823110818862915,-0.22623535990715027,-0.3668501675128937
1661347504131510300,10.62751025390625,-0.12982900440692902,-0.1861548274755478,-0.38163068890571594
1661347504141567500,10.6375673828125,-0.1165132075548172,-0.1418132185935974,-0.38948702812194824
1661347504151624400,10.64762451171875,-0.09946899116039276,-0.0949416235089302,-0.3909517526626587
1661347504161681400,10.657681396484374,-0.08881635963916779,-0.03941475600004196,-0.40027281641960144
1661347504171738600,10.667738525390625,-0.08242477476596832,-0.020373167470097542,-0.411857545375824
1661347504181796000,10.677796142578124,-0.07816372066736221,-0.027430538088083267,-0.3928159773349762
1661347504191853300,10.687853271484375,-0.08934898674488068,-0.06391581892967224,-0.3195790946483612
1661347504201910500,10.69791064453125,-0.10852373391389847,-0.12503531575202942,-0.21411798894405365
1661347504211968000,10.707968017578125,-0.14021532237529755,-0.17377112805843353,-0.10732531547546387
1661347504222025200,10.718025146484376,-0.17616797983646393,-0.18469008803367615,-0.024767380207777023
1661347504232082200,10.728082275390625,-0.20093534886837006,-0.18362481892108917,0.03262370079755783
1661347504242139100,10.73813916015625,-0.212653249502182,-0.19747324287891388,0.07203845679759979
1661347504252196000,10.748196044921874,-0.22090904414653778,-0.245010644197464,0.08815056830644608
1661347504262253300,10.75825341796875,-0.22783325612545013,-0.2894853949546814,0.0762995108962059
1661347504272310300,10.768310302734376,-0.22929799556732178,-0.3292996287345886,0.06711161136627197
1661347504282367200,10.7783671875,-0.2251701056957245,-0.35167014598846436,0.07376950979232788
1661347504292424400,10.788424560546876,-0.21118851006031036,-0.36658385396003723,0.09054741263389587
1661347504302481400,10.7984814453125,-0.18841850757598877,-0.3994738757610321,0.10546109825372696
1661347504312538400,10.808538330078125,-0.16005586087703705,-0.4673844277858734,0.09840372949838638
1661347504322595300,10.81859521484375,-0.13555480539798737,-0.554602861404419,0.07310371845960617
1661347504332652500,10.828652587890625,-0.12024163454771042,-0.6090644598007202,0.0294279083609581
1661347504342709500,10.83870947265625,-0.11638005077838898,-0.590156078338623,-0.029561065137386322
1661347504352766500,10.848766357421875,-0.13022847473621368,-0.4960133731365204,-0.09121319651603699
1661347504362823700,10.85882373046875,-0.1519332230091095,-0.37510594725608826,-0.15446323156356812
1661347504372880600,10.868880615234374,-0.1771000772714615,-0.2701774835586548,-0.204264298081398
1661347504382937600,10.8789375,-0.1909485012292862,-0.2155827283859253,-0.22011010348796844
1661347504392994600,10.88899462890625,-0.18042902648448944,-0.21158799529075623,-0.19560903310775757
1661347504403051800,10.8990517578125,-0.15659375488758087,-0.2528669536113739,-0.12929637730121613
1661347504413108700,10.909108642578126,-0.13302479684352875,-0.3154512047767639,-0.047537390142679214
1661347504423165700,10.919165771484375,-0.10359688848257065,-0.3873564898967743,0.030493171885609627
1661347504433222700,10.92922265625,-0.07203845679759979,-0.4608596861362457,0.08388951420783997
1661347504443280000,10.93927978515625,-0.04407528415322304,-0.5106607675552368,0.09614004194736481
1661347504453336800,10.9493369140625,-0.03262370079755783,-0.530900776386261,0.07376950979232788
1661347504463394000,10.95939404296875,-0.03448791056871414,-0.53582763671875,0.03275685757398605
1661347504473451300,10.969451171875,-0.04833633825182915,-0.521047055721283,-0.017044218257069588
1661347504483508700,10.9795087890625,-0.07123950868844986,-0.4917523264884949,-0.060986343771219254
1661347504493566000,10.98956591796875,-0.10013478249311447,-0.4491417706012726,-0.09334372729063034
1661347504503623200,10.999623046875,-0.12996216118335724,-0.40386807918548584,-0.10359688848257065
1661347504513680600,11.0096806640625,-0.15699322521686554,-0.3653854429721832,-0.09480846673250198
1661347504523737900,11.01973779296875,-0.17457008361816406,-0.3292996287345886,-0.07350318878889084
1661347504533794800,11.029794921875,-0.18042902648448944,-0.2984069883823395,-0.04394212365150452
1661347504543851800,11.039851806640625,-0.17084164917469025,-0.2788327634334564,-0.010918952524662018
1661347504553909000,11.049908935546876,-0.14194637537002563,-0.279764860868454,0.02024000883102417
1661347504563966000,11.059966064453125,-0.10146636515855789,-0.30546435713768005,0.03768370300531387
1661347504574023000,11.07002294921875,-0.06418213248252869,-0.3532680571079254,0.04194475710391998
1661347504584080000,11.080079833984374,-0.03621896356344223,-0.3761712312698364,0.038349490612745285
1661347504594137000,11.09013720703125,-0.027297381311655045,-0.36605122685432434,0.03621896356344223
1661347504604194000,11.100194091796874,-0.031158961355686188,-0.36005911231040955,0.03555317223072052
1661347504614251000,11.1102509765625,-0.04647212475538254,-0.36605122685432434,0.03795001655817032
1661347504624308200,11.12030810546875,-0.07123950868844986,-0.3476754128932953,0.03755054250359535
1661347504634365200,11.130365234375,-0.09440898895263672,-0.3058638274669647,0.03515370190143585
1661347504644422100,11.140422119140625,-0.1117195263504982,-0.261788547039032,0.0354200154542923
1661347504654479000,11.15047900390625,-0.11385004967451096,-0.21598219871520996,0.035819489508867264
1661347504664536300,11.160536376953125,-0.10639320313930511,-0.18761955201625824,0.030493171885609627
1661347504674593300,11.17059326171875,-0.0990695208311081,-0.1940111368894577,0.014247900806367397
1661347504684650200,11.180650146484375,-0.09400951862335205,-0.21371851861476898,-0.007190529722720385
1661347504694707200,11.190707275390626,-0.0894821435213089,-0.2347574681043625,-0.01957421936094761
1661347504704764700,11.2007646484375,-0.08402267098426819,-0.2372874766588211,-0.01318263728171587
1661347504714822000,11.21082177734375,-0.07843003422021866,-0.2215748429298401,0.007190529722720385
1661347504724879000,11.220879150390624,-0.06857634335756302,-0.19614167511463165,0.030493171885609627
1661347504734936300,11.230936279296875,-0.06218476593494415,-0.16365112364292145,0.05139897018671036
1661347504744993800,11.240993896484374,-0.06138581782579422,-0.1452753245830536,0.07110634446144104
1661347504755051000,11.251051025390625,-0.06351634114980698,-0.14913691580295563,0.08242477476596832
1661347504765108200,11.261108154296876,-0.06271740049123764,-0.15273217856884003,0.10293109714984894
1661347504775165400,11.27116552734375,-0.052464235574007034,-0.16231954097747803,0.14314480125904083
1661347504785222400,11.281222412109376,-0.04620581120252609,-0.1796300858259201,0.1849564015865326
1661347504795279600,11.291279541015625,-0.039015281945466995,-0.1868206113576889,0.21172115206718445
1661347504805336600,11.301336669921875,-0.02769685536623001,-0.19188061356544495,0.22197431325912476
1661347504815393500,11.3113935546875,-0.007723161485046148,-0.20386482775211334,0.22117535769939423
1661347504825450500,11.321450439453125,0.010253162123262882,-0.20812588930130005,0.20519641041755676
1661347504835507700,11.3315078125,0.017044218257069588,-0.18748639523983002,0.17683376371860504
1661347504845564700,11.341564697265625,0.01717737689614296,-0.14740586280822754,0.1537974327802658
1661347504855621600,11.35162158203125,0.016378428786993027,-0.114116370677948,0.15100112557411194
1661347504865678800,11.361678955078125,0.02090579830110073,-0.10865689069032669,0.1597895473241806
1661347504875735800,11.37173583984375,0.031025802716612816,-0.14314480125904083,0.17110797762870789
1661347504885792800,11.381792724609374,0.0366184376180172,-0.18295903503894806,0.18828535079956055
1661347504895849700,11.391849609375,0.03808317333459854,-0.20466378331184387,0.21132168173789978
1661347504905907000,11.401906982421876,0.03635212033987045,-0.19081534445285797,0.2372874766588211
1661347504915964200,11.411964111328125,0.03315633162856102,-0.1609879732131958,0.2713759243488312
1661347504926021400,11.422021484375,0.03728422895073891,-0.1442100703716278,0.32517173886299133
1661347504936078600,11.43207861328125,0.048070020973682404,-0.1452753245830536,0.39308229088783264
1661347504946135800,11.4421357421875,0.05153212696313858,-0.15872427821159363,0.43143177032470703
1661347504956193300,11.452193359375,0.04593949392437935,-0.18895113468170166,0.39667755365371704
1661347504966250500,11.46225048828125,0.03275685757398605,-0.2205095738172531,0.2848248779773712
1661347504976307700,11.4723076171875,0.008655266836285591,-0.22064273059368134,0.12170637398958206
1661347504986365200,11.482365234375,-0.017310533672571182,-0.1928127259016037,-0.045140545815229416
1661347504996422100,11.492422119140626,-0.04354264959692955,-0.13848426938056946,-0.1700427085161209
1661347505006479400,11.502479248046875,-0.05792371183633804,-0.0732368752360344,-0.2162485122680664
1661347505016536300,11.512536376953125,-0.05965476483106613,-0.023435799404978752,-0.18748639523983002
1661347505026593300,11.52259326171875,-0.048868969082832336,0.01771000772714615,-0.10373004525899887
1661347505036650200,11.532650146484375,-0.024367906153202057,0.04114580899477005,0.004261054564267397
1661347505046707500,11.54270751953125,0.023036325350403786,0.009454214945435524,0.1249021589756012
1661347505056764400,11.552764404296875,0.08202529698610306,-0.07856319099664688,0.23675484955310822
1661347505066821400,11.5628212890625,0.1380847990512848,-0.1868206113576889,0.32237541675567627
1661347505076878300,11.57287841796875,0.18149429559707642,-0.2528669536113739,0.37097805738449097
1661347505086935600,11.582935546875,0.20200061798095703,-0.2552638053894043,0.3976096510887146
1661347505096992500,11.592992431640624,0.20040272176265717,-0.21172115206718445,0.4203796684741974
1661347505107049500,11.603049560546875,0.17909744381904602,-0.1627190262079239,0.44168493151664734
1661347505117106700,11.613106689453126,0.1478053331375122,-0.11731215566396713,0.45140546560287476
1661347505127164200,11.6231640625,0.10905636847019196,-0.05819002538919449,0.4608596861362457
1661347505137221400,11.633221435546876,0.06937529146671295,-0.002929474925622344,0.47550705075263977
1661347505147278600,11.643278564453125,0.03741738572716713,0.031158961355686188,0.48389601707458496
1661347505157335800,11.653335693359375,0.022503694519400597,0.043276336044073105,0.474441796541214
1661347505167393300,11.663393310546875,0.027297381311655045,0.03941475600004196,0.43928807973861694
1661347505177450500,11.673450439453125,0.04301001876592636,0.02450106292963028,0.39121806621551514
1661347505187507700,11.6835078125,0.06711161136627197,0.0070573715493083,0.3370227813720703
1661347505197565200,11.693565185546875,0.09014793485403061,0.005326318088918924,0.2733732759952545
1661347505207622100,11.7036220703125,0.10652636736631393,0.014514217153191566,0.19387798011302948
1661347505217679000,11.71367919921875,0.10759162902832031,0.020506324246525764,0.09334372729063034
1661347505227736000,11.723736083984376,0.08921582996845245,0.03129211813211441,-0.014247900806367397
1661347505237793300,11.733793212890625,0.061785291880369186,0.051798444241285324,-0.10159952193498611
1661347505247850200,11.743850341796875,0.03488738462328911,0.04394212365150452,-0.15339796245098114
1661347505257907200,11.7539072265625,0.019840534776449203,0.010519478470087051,-0.1736379712820053
1661347505267964400,11.76396435546875,0.018109481781721115,-0.019307903945446014,-0.16658060252666473
1661347505278021400,11.774021484375,0.025300011038780212,-0.04407528415322304,-0.1327584832906723
1661347505288078300,11.784078369140625,0.044474758207798004,-0.06831002980470657,-0.08122635632753372
1661347505298135300,11.79413525390625,0.07203845679759979,-0.08602003753185272,-0.024101590737700462
1661347505308192500,11.804192626953125,0.0894821435213089,-0.08695214241743088,0.029161592945456505
1661347505318249700,11.814249755859375,0.09174583107233047,-0.09241162240505219,0.061785291880369186
1661347505328307200,11.82430712890625,0.09054741263389587,-0.09334372729063034,0.06631266325712204
1661347505338364400,11.834364501953125,0.08455529808998108,-0.0930774137377739,0.06205160543322563
1661347505348421600,11.844421630859374,0.06817687302827835,-0.07576687633991241,0.0624510794878006
1661347505358479000,11.85447900390625,0.04860265180468559,-0.052863709628582,0.07603318989276886
1661347505368536300,11.864536376953126,0.022503694519400597,-0.016112113371491432,0.10892320424318314
1661347505378593500,11.874593505859375,-0.005592633970081806,0.024367906153202057,0.15060164034366608
1661347505388650800,11.884650634765626,-0.028628960251808167,0.04287686198949814,0.18575534224510193
1661347505398708200,11.894708251953125,-0.04008054360747337,0.016911059617996216,0.19747324287891388
1661347505408765200,11.90476513671875,-0.035819489508867264,-0.03129211813211441,0.18295903503894806
1661347505418822100,11.914822265625,-0.016245270147919655,-0.07536740601062775,0.1525990217924118
1661347505428879400,11.92487939453125,0.005459476262331009,-0.11358373612165451,0.110521100461483
1661347505438936300,11.934936279296876,0.020373167470097542,-0.1452753245830536,0.066046342253685
1661347505448993300,11.9449931640625,0.02889527566730976,-0.16365112364292145,0.0354200154542923
1661347505459050500,11.955050537109376,0.030892645940184593,-0.15339796245098114,0.02636527456343174
1661347505469107500,11.965107421875,0.023435799404978752,-0.1033305749297142,0.021305272355675697
1661347505479164400,11.975164306640625,0.0153131652623415,-0.04980107396841049,0.014647374860942364
1661347505489221400,11.985221435546874,0.01078579481691122,-0.022503694519400597,0.0003994738799519837
1661347505499278600,11.995278564453125,0.0007989477599039674,-0.011717899702489376,-0.020639482885599136
1661347505509335800,12.005335693359376,-0.021172115579247475,0.005193160381168127,-0.040746334940195084
1661347505519393000,12.01539306640625,-0.042610544711351395,0.011984216049313545,-0.053662657737731934
1661347505529450500,12.025450439453126,-0.05326318368315697,-0.004660528618842363,-0.05472791939973831
1661347505539507700,12.0355078125,-0.04833633825182915,-0.04114580899477005,-0.034754227846860886
1661347505549565000,12.04556494140625,-0.03755054250359535,-0.08029424399137497,0.0074568456038832664
1661347505559622400,12.055622314453124,-0.025566328316926956,-0.10825742036104202,0.07696529477834702
1661347505569679600,12.0656796875,-0.020506324246525764,-0.12183953076601028,0.15699322521686554
1661347505579736800,12.07573681640625,-0.0153131652623415,-0.12357058376073837,0.23435799777507782
1661347505589794300,12.085794189453125,-0.010652636177837849,-0.11797794699668884,0.2893522381782532
1661347505599851500,12.0958515625,-0.010253162123262882,-0.10772478580474854,0.3249054253101349
1661347505609908700,12.10590869140625,-0.011717899702489376,-0.09014793485403061,0.3483411967754364
1661347505619965700,12.115965576171876,-0.01584579609334469,-0.056192658841609955,0.3675159513950348
1661347505630022700,12.126022705078125,-0.02197106182575226,-0.009187898598611355,0.3688475489616394
1661347505640079600,12.13607958984375,-0.023036325350403786,0.03262370079755783,0.3398191034793854
1661347505650136800,12.14613671875,-0.014913691207766533,0.03235738351941109,0.2914827764034271
1661347505660193800,12.15619384765625,-0.0025300011038780212,-0.004660528618842363,0.24820642173290253
1661347505670250800,12.166250732421876,0.006391582079231739,-0.04194475710391998,0.22024326026439667
1661347505680307700,12.1763076171875,0.00892158318310976,-0.05579318478703499,0.2155827283859253
1661347505690365000,12.186364990234376,0.007856319658458233,-0.02636527456343174,0.23582273721694946
1661347505700422100,12.196422119140625,0.008655266836285591,0.02330264262855053,0.26884591579437256
1661347505710479400,12.206479248046875,0.01078579481691122,0.05752423778176308,0.30852699279785156
1661347505720536800,12.216536865234374,0.016112113371491432,0.07763108611106873,0.3394196331501007
1661347505730594000,12.226593994140625,0.030493171885609627,0.09094688296318054,0.342349112033844
1661347505740651300,12.2366513671875,0.05113265663385391,0.06697845458984375,0.3134538233280182
1661347505750708700,12.246708740234375,0.0732368752360344,0.022370535880327225,0.27550381422042847
1661347505760766000,12.256765869140626,0.08841688185930252,0.015579480677843094,0.26418536901474
1661347505770823200,12.2668232421875,0.09600688517093658,0.04540686309337616,0.29228171706199646
1661347505780880400,12.27688037109375,0.0954742506146431,0.08655267208814621,0.32703593373298645
1661347505790937900,12.286937744140625,0.08282424509525299,0.10865689069032669,0.30959224700927734
1661347505800995000,12.2969951171875,0.06964161247015,0.08016108721494675,0.22437115013599396
1661347505811052300,12.30705224609375,0.040879491716623306,0.032224226742982864,0.0858868807554245
1661347505821109200,12.317109130859375,-0.005193160381168127,0.03448791056871414,-0.06631266325712204
1661347505831166500,12.32716650390625,-0.05352949723601341,0.06857634335756302,-0.19747324287891388
1661347505841223400,12.337223388671875,-0.08522108942270279,0.10679268091917038,-0.280963271856308
1661347505851280400,12.3472802734375,-0.09121319651603699,0.13981585204601288,-0.2908169627189636
1661347505861337300,12.35733740234375,-0.07097318768501282,0.16711322963237762,-0.22290641069412231
